trial_idx,path,participant_code,subsession_round_number,idx_in_block,interest,flexibility,intention,trust_label,trust_prior,choice
0,A,veja00p0,1,0,disinterested,very_flexible,none,medium,3,False
1,A,8p0zh0j6,1,0,disinterested,very_rigid,none,medium,3,False
2,A,lsrx4pel,1,0,interested,very_rigid,none,medium,3,False
3,A,zb0eyi2x,1,0,disinterested,very_flexible,none,medium,3,False
4,A,4kyco475,1,0,disinterested,very_rigid,none,medium,3,True
5,A,tl23k2gu,1,0,interested,very_flexible,none,medium,3,False
6,A,0pm7s4o5,1,0,interested,very_rigid,none,medium,3,False
7,A,gzjop6y4,1,0,disinterested,very_flexible,none,medium,3,False
8,A,w3d8x589,1,0,disinterested,very_rigid,none,medium,3,False
9,A,ldchb1gc,1,0,interested,very_flexible,none,medium,3,False
10,A,2n2nnnah,1,0,interested,very_rigid,none,medium,3,True
11,A,f5vhn4ef,1,0,disinterested,very_flexible,none,medium,3,False
12,A,tn91fg3b,1,0,disinterested,very_rigid,none,medium,3,False
13,A,pi2k9gvv,1,0,interested,very_flexible,none,medium,3,False
14,A,pnopn919,1,0,interested,very_rigid,none,medium,3,False
15,A,s5rz5zco,1,0,disinterested,very_rigid,none,medium,3,False
16,A,84jtsx1a,1,0,interested,very_flexible,none,medium,3,False
17,A,lqbo1527,1,0,interested,very_rigid,none,medium,3,False
18,A,8tvsx0fd,1,0,disinterested,very_flexible,none,medium,3,False
19,A,dba0n916,1,0,disinterested,very_rigid,none,medium,3,False
20,A,61dlsmmk,1,0,interested,very_flexible,none,medium,3,False
21,A,jj4r1t9p,1,0,interested,very_rigid,none,medium,3,False
22,A,cndtfhxg,1,0,disinterested,very_flexible,none,medium,3,False
23,A,hm32uo0p,1,0,disinterested,very_rigid,none,medium,3,False
24,A,x8whx6bm,1,0,interested,very_flexible,none,medium,3,False
25,A,z6hvztqh,1,0,disinterested,very_flexible,none,medium,3,True
26,A,85n7tozx,1,0,disinterested,very_rigid,none,medium,3,False
27,A,rk0xc19u,1,0,interested,very_flexible,none,medium,3,True
28,A,m753aoa8,1,0,interested,very_rigid,none,medium,3,False
29,A,s1udgqra,1,0,disinterested,very_flexible,none,medium,3,False
30,A,rwz4laqf,1,0,disinterested,very_rigid,none,medium,3,True
31,A,2clf3qjs,1,0,interested,very_flexible,none,medium,3,True
32,A,jtj4y8j9,1,0,interested,very_rigid,none,medium,3,True
33,A,olaqpku3,1,0,disinterested,very_flexible,none,medium,3,True
34,A,30ynb4ww,1,0,disinterested,very_rigid,none,medium,3,False
35,A,job309if,1,0,interested,very_flexible,none,medium,3,True
36,A,fwvovwys,1,0,interested,very_rigid,none,medium,3,False
37,A,efqjg7qk,1,0,disinterested,very_rigid,none,medium,3,False
38,A,abrqft6t,1,0,interested,very_flexible,none,medium,3,False
39,A,6rs4ty3i,1,0,interested,very_rigid,none,medium,3,False
40,A,cbn0yvv3,1,0,disinterested,very_flexible,none,medium,3,False
41,A,181c6htg,1,0,disinterested,very_rigid,none,medium,3,False
42,A,i0td3h33,1,0,interested,very_flexible,none,medium,3,False
43,A,u7rycd0v,1,0,interested,very_rigid,none,medium,3,True
44,A,fp10g2qx,1,0,disinterested,very_flexible,none,medium,3,True
45,A,sf4osa9n,1,0,disinterested,very_rigid,none,medium,3,False
46,A,wl96ty29,1,0,interested,very_flexible,none,medium,3,False
47,A,prxpq1gh,1,0,interested,very_rigid,none,medium,3,False
48,A,2x6s0hif,1,0,disinterested,very_flexible,none,medium,3,True
49,A,r8h1it9l,1,0,disinterested,very_rigid,none,medium,3,True
50,A,3h046v2j,1,0,interested,very_flexible,none,medium,3,False
51,A,sjy2dlo0,1,0,interested,very_rigid,none,medium,3,False
52,A,me7bhqlo,1,0,disinterested,very_rigid,none,medium,3,False
53,A,7ru0x9ro,1,0,interested,very_rigid,none,medium,3,False
54,A,srpft0j6,1,0,disinterested,very_rigid,none,medium,3,False
55,A,qiyaxaff,1,0,disinterested,very_flexible,none,medium,3,True
56,A,0k57v1np,1,0,disinterested,very_rigid,none,medium,3,True
57,A,kzd59pdh,1,0,interested,very_flexible,none,medium,3,False
58,A,26ucyyyw,1,0,disinterested,very_rigid,none,medium,3,False
59,A,opwfux7k,1,0,interested,very_flexible,none,medium,3,False
60,A,d1j2wz3u,1,0,interested,very_rigid,none,medium,3,True
61,A,7b8yn66a,1,0,disinterested,very_flexible,none,medium,3,False
62,A,wnsjgeel,1,0,disinterested,very_rigid,none,medium,3,True
63,A,4rj36y8r,1,0,interested,very_flexible,none,medium,3,False
64,A,mllfjnwv,1,0,interested,very_rigid,none,medium,3,False
65,A,gh7cgbdd,1,0,disinterested,very_flexible,none,medium,3,True
66,A,a0fba1p4,1,0,disinterested,very_rigid,none,medium,3,True
67,A,i9jeohin,1,0,interested,very_rigid,none,medium,3,False
68,A,8yajl1jy,1,0,disinterested,very_rigid,none,medium,3,False
69,A,n1aur0uy,1,0,interested,very_flexible,none,medium,3,False
70,A,p6pzjoyp,1,0,interested,very_rigid,none,medium,3,False
71,A,o3p09ngr,1,0,disinterested,very_flexible,none,medium,3,False
72,A,ucqfa4ve,1,0,disinterested,very_rigid,none,medium,3,False
73,A,wly741pc,1,0,interested,very_flexible,none,medium,3,True
74,A,gdxahyb7,1,0,interested,very_rigid,none,medium,3,False
75,A,z7q2ci1x,1,0,disinterested,very_flexible,none,medium,3,True
76,A,rysaqzm4,1,0,disinterested,very_rigid,none,medium,3,False
77,A,x4grrcuj,1,0,interested,very_flexible,none,medium,3,False
78,A,w2ln3hhc,1,0,interested,very_rigid,none,medium,3,False
79,A,7rwpytud,1,0,disinterested,very_flexible,none,medium,3,True
80,A,s97egxzl,1,0,disinterested,very_rigid,none,medium,3,False
81,A,veja00p0,2,1,disinterested,very_flexible,none,slightly_low,2,True
82,A,8p0zh0j6,2,1,disinterested,very_rigid,none,medium,3,True
83,A,lsrx4pel,2,1,interested,very_rigid,none,medium,3,False
84,A,zb0eyi2x,2,1,disinterested,very_flexible,none,slightly_low,2,False
85,A,4kyco475,2,1,disinterested,very_rigid,none,medium,3,False
86,A,tl23k2gu,2,1,interested,very_flexible,none,medium,3,True
87,A,0pm7s4o5,2,1,interested,very_rigid,none,medium,3,False
88,A,gzjop6y4,2,1,disinterested,very_flexible,none,slightly_low,2,False
89,A,w3d8x589,2,1,disinterested,very_rigid,none,medium,3,False
90,A,ldchb1gc,2,1,interested,very_flexible,none,medium,3,True
91,A,2n2nnnah,2,1,interested,very_rigid,none,medium,3,False
92,A,f5vhn4ef,2,1,disinterested,very_flexible,none,slightly_low,2,False
93,A,tn91fg3b,2,1,disinterested,very_rigid,none,medium,3,False
94,A,pi2k9gvv,2,1,interested,very_flexible,none,slightly_low,2,True
95,A,pnopn919,2,1,interested,very_rigid,none,medium,3,True
96,A,s5rz5zco,2,1,disinterested,very_rigid,none,medium,3,False
97,A,84jtsx1a,2,1,interested,very_flexible,none,medium,3,True
98,A,lqbo1527,2,1,interested,very_rigid,none,medium,3,False
99,A,8tvsx0fd,2,1,disinterested,very_flexible,none,slightly_low,2,False
100,A,dba0n916,2,1,disinterested,very_rigid,none,medium,3,True
101,A,61dlsmmk,2,1,interested,very_flexible,none,medium,3,False
102,A,jj4r1t9p,2,1,interested,very_rigid,none,medium,3,False
103,A,cndtfhxg,2,1,disinterested,very_flexible,none,slightly_low,2,False
104,A,hm32uo0p,2,1,disinterested,very_rigid,none,medium,3,True
105,A,x8whx6bm,2,1,interested,very_flexible,none,medium,3,False
106,A,z6hvztqh,2,1,disinterested,very_flexible,none,slightly_high,4,True
107,A,85n7tozx,2,1,disinterested,very_rigid,none,medium,3,False
108,A,rk0xc19u,2,1,interested,very_flexible,none,high,5,False
109,A,m753aoa8,2,1,interested,very_rigid,none,medium,3,False
110,A,s1udgqra,2,1,disinterested,very_flexible,none,slightly_low,2,False
111,A,rwz4laqf,2,1,disinterested,very_rigid,none,medium,3,True
112,A,2clf3qjs,2,1,interested,very_flexible,none,high,5,False
113,A,jtj4y8j9,2,1,interested,very_rigid,none,medium,3,False
114,A,olaqpku3,2,1,disinterested,very_flexible,none,slightly_high,4,False
115,A,30ynb4ww,2,1,disinterested,very_rigid,none,medium,3,False
116,A,job309if,2,1,interested,very_flexible,none,high,5,False
117,A,fwvovwys,2,1,interested,very_rigid,none,medium,3,True
118,A,efqjg7qk,2,1,disinterested,very_rigid,none,medium,3,False
119,A,abrqft6t,2,1,interested,very_flexible,none,medium,3,False
120,A,6rs4ty3i,2,1,interested,very_rigid,none,medium,3,False
121,A,cbn0yvv3,2,1,disinterested,very_flexible,none,slightly_low,2,True
122,A,181c6htg,2,1,disinterested,very_rigid,none,medium,3,False
123,A,i0td3h33,2,1,interested,very_flexible,none,medium,3,True
124,A,u7rycd0v,2,1,interested,very_rigid,none,medium,3,False
125,A,fp10g2qx,2,1,disinterested,very_flexible,none,slightly_high,4,False
126,A,sf4osa9n,2,1,disinterested,very_rigid,none,medium,3,False
127,A,wl96ty29,2,1,interested,very_flexible,none,medium,3,True
128,A,prxpq1gh,2,1,interested,very_rigid,none,medium,3,False
129,A,2x6s0hif,2,1,disinterested,very_flexible,none,slightly_high,4,False
130,A,r8h1it9l,2,1,disinterested,very_rigid,none,medium,3,False
131,A,3h046v2j,2,1,interested,very_flexible,none,medium,3,True
132,A,sjy2dlo0,2,1,interested,very_rigid,none,medium,3,False
133,A,me7bhqlo,2,1,disinterested,very_rigid,none,medium,3,False
134,A,7ru0x9ro,2,1,interested,very_rigid,none,medium,3,False
135,A,srpft0j6,2,1,disinterested,very_rigid,none,medium,3,True
136,A,qiyaxaff,2,1,disinterested,very_flexible,none,slightly_high,4,True
137,A,0k57v1np,2,1,disinterested,very_rigid,none,medium,3,False
138,A,kzd59pdh,2,1,interested,very_flexible,none,slightly_low,2,True
139,A,26ucyyyw,2,1,disinterested,very_rigid,none,medium,3,True
140,A,opwfux7k,2,1,interested,very_flexible,none,medium,3,False
141,A,d1j2wz3u,2,1,interested,very_rigid,none,medium,3,False
142,A,7b8yn66a,2,1,disinterested,very_flexible,none,slightly_low,2,True
143,A,wnsjgeel,2,1,disinterested,very_rigid,none,medium,3,False
144,A,4rj36y8r,2,1,interested,very_flexible,none,medium,3,False
145,A,mllfjnwv,2,1,interested,very_rigid,none,medium,3,True
146,A,gh7cgbdd,2,1,disinterested,very_flexible,none,slightly_high,4,False
147,A,a0fba1p4,2,1,disinterested,very_rigid,none,medium,3,False
148,A,i9jeohin,2,1,interested,very_rigid,none,medium,3,False
149,A,8yajl1jy,2,1,disinterested,very_rigid,none,medium,3,False
150,A,n1aur0uy,2,1,interested,very_flexible,none,medium,3,True
151,A,p6pzjoyp,2,1,interested,very_rigid,none,medium,3,True
152,A,o3p09ngr,2,1,disinterested,very_flexible,none,slightly_low,2,True
153,A,ucqfa4ve,2,1,disinterested,very_rigid,none,medium,3,True
154,A,wly741pc,2,1,interested,very_flexible,none,high,5,False
155,A,gdxahyb7,2,1,interested,very_rigid,none,medium,3,False
156,A,z7q2ci1x,2,1,disinterested,very_flexible,none,slightly_high,4,False
157,A,rysaqzm4,2,1,disinterested,very_rigid,none,medium,3,False
158,A,x4grrcuj,2,1,interested,very_flexible,none,medium,3,False
159,A,w2ln3hhc,2,1,interested,very_rigid,none,medium,3,False
160,A,7rwpytud,2,1,disinterested,very_flexible,none,slightly_high,4,False
161,A,s97egxzl,2,1,disinterested,very_rigid,none,medium,3,True
162,A,veja00p0,3,2,disinterested,very_flexible,none,slightly_high,4,False
163,A,8p0zh0j6,3,2,disinterested,very_rigid,none,medium,3,False
164,A,lsrx4pel,3,2,interested,very_rigid,none,medium,3,False
165,A,zb0eyi2x,3,2,disinterested,very_flexible,none,slightly_low,2,False
166,A,4kyco475,3,2,disinterested,very_rigid,none,medium,3,False
167,A,tl23k2gu,3,2,interested,very_flexible,none,high,5,False
168,A,0pm7s4o5,3,2,interested,very_rigid,none,medium,3,True
169,A,gzjop6y4,3,2,disinterested,very_flexible,none,slightly_low,2,False
170,A,w3d8x589,3,2,disinterested,very_rigid,none,medium,3,True
171,A,ldchb1gc,3,2,interested,very_flexible,none,high,5,False
172,A,2n2nnnah,3,2,interested,very_rigid,none,slightly_high,4,True
173,A,f5vhn4ef,3,2,disinterested,very_flexible,none,slightly_low,2,False
174,A,tn91fg3b,3,2,disinterested,very_rigid,none,medium,3,False
175,A,pi2k9gvv,3,2,interested,very_flexible,none,slightly_high,4,False
176,A,pnopn919,3,2,interested,very_rigid,none,slightly_high,4,False
177,A,s5rz5zco,3,2,disinterested,very_rigid,none,medium,3,False
178,A,84jtsx1a,3,2,interested,very_flexible,none,high,5,False
179,A,lqbo1527,3,2,interested,very_rigid,none,medium,3,True
180,A,8tvsx0fd,3,2,disinterested,very_flexible,none,slightly_low,2,False
181,A,dba0n916,3,2,disinterested,very_rigid,none,medium,3,False
182,A,61dlsmmk,3,2,interested,very_flexible,none,medium,3,False
183,A,jj4r1t9p,3,2,interested,very_rigid,none,medium,3,False
184,A,cndtfhxg,3,2,disinterested,very_flexible,none,slightly_low,2,True
185,A,hm32uo0p,3,2,disinterested,very_rigid,none,medium,3,False
186,A,x8whx6bm,3,2,interested,very_flexible,none,medium,3,False
187,A,z6hvztqh,3,2,disinterested,very_flexible,none,high,5,False
188,A,85n7tozx,3,2,disinterested,very_rigid,none,medium,3,False
189,A,rk0xc19u,3,2,interested,very_flexible,none,slightly_high,4,False
190,A,m753aoa8,3,2,interested,very_rigid,none,medium,3,True
191,A,s1udgqra,3,2,disinterested,very_flexible,none,slightly_low,2,False
192,A,rwz4laqf,3,2,disinterested,very_rigid,none,medium,3,False
193,A,2clf3qjs,3,2,interested,very_flexible,none,slightly_high,4,True
194,A,jtj4y8j9,3,2,interested,very_rigid,none,slightly_high,4,False
195,A,olaqpku3,3,2,disinterested,very_flexible,none,medium,3,False
196,A,30ynb4ww,3,2,disinterested,very_rigid,none,medium,3,False
197,A,job309if,3,2,interested,very_flexible,none,slightly_high,4,False
198,A,fwvovwys,3,2,interested,very_rigid,none,slightly_high,4,False
199,A,efqjg7qk,3,2,disinterested,very_rigid,none,medium,3,False
200,A,abrqft6t,3,2,interested,very_flexible,none,low,1,True
201,A,6rs4ty3i,3,2,interested,very_rigid,none,medium,3,False
202,A,cbn0yvv3,3,2,disinterested,very_flexible,none,slightly_high,4,False
203,A,181c6htg,3,2,disinterested,very_rigid,none,medium,3,False
204,A,i0td3h33,3,2,interested,very_flexible,none,high,5,False
205,A,u7rycd0v,3,2,interested,very_rigid,none,slightly_high,4,False
206,A,fp10g2qx,3,2,disinterested,very_flexible,none,medium,3,True
207,A,sf4osa9n,3,2,disinterested,very_rigid,none,medium,3,False
208,A,wl96ty29,3,2,interested,very_flexible,none,high,5,False
209,A,prxpq1gh,3,2,interested,very_rigid,none,medium,3,True
210,A,2x6s0hif,3,2,disinterested,very_flexible,none,medium,3,True
211,A,r8h1it9l,3,2,disinterested,very_rigid,none,medium,3,False
212,A,3h046v2j,3,2,interested,very_flexible,none,high,5,False
213,A,sjy2dlo0,3,2,interested,very_rigid,none,medium,3,True
214,A,me7bhqlo,3,2,disinterested,very_rigid,none,medium,3,True
215,A,7ru0x9ro,3,2,interested,very_rigid,none,medium,3,False
216,A,srpft0j6,3,2,disinterested,very_rigid,none,medium,3,False
217,A,qiyaxaff,3,2,disinterested,very_flexible,none,high,5,True
218,A,0k57v1np,3,2,disinterested,very_rigid,none,medium,3,False
219,A,kzd59pdh,3,2,interested,very_flexible,none,slightly_high,4,False
220,A,26ucyyyw,3,2,disinterested,very_rigid,none,medium,3,False
221,A,opwfux7k,3,2,interested,very_flexible,none,medium,3,False
222,A,d1j2wz3u,3,2,interested,very_rigid,none,slightly_high,4,True
223,A,7b8yn66a,3,2,disinterested,very_flexible,none,slightly_high,4,False
224,A,wnsjgeel,3,2,disinterested,very_rigid,none,medium,3,True
225,A,4rj36y8r,3,2,interested,very_flexible,none,medium,3,False
226,A,mllfjnwv,3,2,interested,very_rigid,none,slightly_high,4,False
227,A,gh7cgbdd,3,2,disinterested,very_flexible,none,medium,3,True
228,A,a0fba1p4,3,2,disinterested,very_rigid,none,medium,3,True
229,A,i9jeohin,3,2,interested,very_rigid,none,medium,3,False
230,A,8yajl1jy,3,2,disinterested,very_rigid,none,medium,3,True
231,A,n1aur0uy,3,2,interested,very_flexible,none,high,5,False
232,A,p6pzjoyp,3,2,interested,very_rigid,none,slightly_high,4,False
233,A,o3p09ngr,3,2,disinterested,very_flexible,none,slightly_high,4,False
234,A,ucqfa4ve,3,2,disinterested,very_rigid,none,medium,3,False
235,A,wly741pc,3,2,interested,very_flexible,none,slightly_high,4,False
236,A,gdxahyb7,3,2,interested,very_rigid,none,medium,3,False
237,A,z7q2ci1x,3,2,disinterested,very_flexible,none,medium,3,False
238,A,rysaqzm4,3,2,disinterested,very_rigid,none,medium,3,False
239,A,x4grrcuj,3,2,interested,very_flexible,none,medium,3,True
240,A,w2ln3hhc,3,2,interested,very_rigid,none,medium,3,True
241,A,7rwpytud,3,2,disinterested,very_flexible,none,medium,3,False
242,A,s97egxzl,3,2,disinterested,very_rigid,none,medium,3,False
243,A,veja00p0,4,3,disinterested,very_flexible,none,slightly_low,2,False
244,A,8p0zh0j6,4,3,disinterested,very_rigid,none,medium,3,False
245,A,lsrx4pel,4,3,interested,very_rigid,none,slightly_high,4,False
246,A,zb0eyi2x,4,3,disinterested,very_flexible,none,slightly_low,2,True
247,A,4kyco475,4,3,disinterested,very_rigid,none,medium,3,False
248,A,tl23k2gu,4,3,interested,very_flexible,none,medium,3,False
249,A,0pm7s4o5,4,3,interested,very_rigid,none,slightly_high,4,False
250,A,gzjop6y4,4,3,disinterested,very_flexible,none,slightly_low,2,False
251,A,w3d8x589,4,3,disinterested,very_rigid,none,medium,3,False
252,A,ldchb1gc,4,3,interested,very_flexible,none,slightly_high,4,False
253,A,2n2nnnah,4,3,interested,very_rigid,none,slightly_high,4,False
254,A,f5vhn4ef,4,3,disinterested,very_flexible,none,slightly_low,2,False
255,A,tn91fg3b,4,3,disinterested,very_rigid,none,medium,3,True
256,A,pi2k9gvv,4,3,interested,very_flexible,none,slightly_high,4,False
257,A,pnopn919,4,3,interested,very_rigid,none,slightly_high,4,True
258,A,s5rz5zco,4,3,disinterested,very_rigid,none,medium,3,False
259,A,84jtsx1a,4,3,interested,very_flexible,none,slightly_high,4,False
260,A,lqbo1527,4,3,interested,very_rigid,none,medium,3,False
261,A,8tvsx0fd,4,3,disinterested,very_flexible,none,very_low,0,False
262,A,dba0n916,4,3,disinterested,very_rigid,none,medium,3,False
263,A,61dlsmmk,4,3,interested,very_flexible,none,medium,3,True
264,A,jj4r1t9p,4,3,interested,very_rigid,none,slightly_high,4,False
265,A,cndtfhxg,4,3,disinterested,very_flexible,none,slightly_high,4,False
266,A,hm32uo0p,4,3,disinterested,very_rigid,none,medium,3,True
267,A,x8whx6bm,4,3,interested,very_flexible,none,medium,3,False
268,A,z6hvztqh,4,3,disinterested,very_flexible,none,slightly_high,4,False
269,A,85n7tozx,4,3,disinterested,very_rigid,none,medium,3,False
270,A,rk0xc19u,4,3,interested,very_flexible,none,slightly_high,4,False
271,A,m753aoa8,4,3,interested,very_rigid,none,slightly_high,4,True
272,A,s1udgqra,4,3,disinterested,very_flexible,none,very_low,0,True
273,A,rwz4laqf,4,3,disinterested,very_rigid,none,medium,3,False
274,A,2clf3qjs,4,3,interested,very_flexible,none,high,5,False
275,A,jtj4y8j9,4,3,interested,very_rigid,none,slightly_high,4,False
276,A,olaqpku3,4,3,disinterested,very_flexible,none,slightly_low,2,False
277,A,30ynb4ww,4,3,disinterested,very_rigid,none,medium,3,False
278,A,job309if,4,3,interested,very_flexible,none,medium,3,True
279,A,fwvovwys,4,3,interested,very_rigid,none,slightly_high,4,False
280,A,efqjg7qk,4,3,disinterested,very_rigid,none,medium,3,False
281,A,abrqft6t,4,3,interested,very_flexible,none,slightly_high,4,False
282,A,6rs4ty3i,4,3,interested,very_rigid,none,medium,3,False
283,A,cbn0yvv3,4,3,disinterested,very_flexible,none,medium,3,True
284,A,181c6htg,4,3,disinterested,very_rigid,none,medium,3,True
285,A,i0td3h33,4,3,interested,very_flexible,none,slightly_high,4,False
286,A,u7rycd0v,4,3,interested,very_rigid,none,slightly_high,4,False
287,A,fp10g2qx,4,3,disinterested,very_flexible,none,slightly_high,4,False
288,A,sf4osa9n,4,3,disinterested,very_rigid,none,medium,3,True
289,A,wl96ty29,4,3,interested,very_flexible,none,slightly_high,4,False
290,A,prxpq1gh,4,3,interested,very_rigid,none,medium,3,False
291,A,2x6s0hif,4,3,disinterested,very_flexible,none,slightly_high,4,True
292,A,r8h1it9l,4,3,disinterested,very_rigid,none,medium,3,False
293,A,3h046v2j,4,3,interested,very_flexible,none,slightly_high,4,False
294,A,sjy2dlo0,4,3,interested,very_rigid,none,slightly_high,4,False
295,A,me7bhqlo,4,3,disinterested,very_rigid,none,medium,3,False
296,A,7ru0x9ro,4,3,interested,very_rigid,none,medium,3,False
297,A,srpft0j6,4,3,disinterested,very_rigid,none,medium,3,True
298,A,qiyaxaff,4,3,disinterested,very_flexible,none,high,5,True
299,A,0k57v1np,4,3,disinterested,very_rigid,none,medium,3,True
300,A,kzd59pdh,4,3,interested,very_flexible,none,medium,3,True
301,A,26ucyyyw,4,3,disinterested,very_rigid,none,medium,3,False
302,A,opwfux7k,4,3,interested,very_flexible,none,medium,3,False
303,A,d1j2wz3u,4,3,interested,very_rigid,none,slightly_high,4,True
304,A,7b8yn66a,4,3,disinterested,very_flexible,none,slightly_low,2,False
305,A,wnsjgeel,4,3,disinterested,very_rigid,none,medium,3,False
306,A,4rj36y8r,4,3,interested,very_flexible,none,low,1,True
307,A,mllfjnwv,4,3,interested,very_rigid,none,slightly_high,4,False
308,A,gh7cgbdd,4,3,disinterested,very_flexible,none,slightly_high,4,True
309,A,a0fba1p4,4,3,disinterested,very_rigid,none,medium,3,True
310,A,i9jeohin,4,3,interested,very_rigid,none,slightly_high,4,False
311,A,8yajl1jy,4,3,disinterested,very_rigid,none,medium,3,False
312,A,n1aur0uy,4,3,interested,very_flexible,none,medium,3,False
313,A,p6pzjoyp,4,3,interested,very_rigid,none,slightly_high,4,False
314,A,o3p09ngr,4,3,disinterested,very_flexible,none,medium,3,True
315,A,ucqfa4ve,4,3,disinterested,very_rigid,none,medium,3,False
316,A,wly741pc,4,3,interested,very_flexible,none,medium,3,True
317,A,gdxahyb7,4,3,interested,very_rigid,none,slightly_high,4,False
318,A,z7q2ci1x,4,3,disinterested,very_flexible,none,slightly_low,2,True
319,A,rysaqzm4,4,3,disinterested,very_rigid,none,medium,3,False
320,A,x4grrcuj,4,3,interested,very_flexible,none,high,5,False
321,A,w2ln3hhc,4,3,interested,very_rigid,none,slightly_high,4,False
322,A,7rwpytud,4,3,disinterested,very_flexible,none,low,1,False
323,A,s97egxzl,4,3,disinterested,very_rigid,none,medium,3,True
324,A,veja00p0,5,4,disinterested,very_flexible,none,slightly_low,2,True
325,A,8p0zh0j6,5,4,disinterested,very_rigid,none,medium,3,False
326,A,lsrx4pel,5,4,interested,very_rigid,none,slightly_high,4,False
327,A,zb0eyi2x,5,4,disinterested,very_flexible,none,high,5,False
328,A,4kyco475,5,4,disinterested,very_rigid,none,medium,3,False
329,A,tl23k2gu,5,4,interested,very_flexible,none,slightly_high,4,False
330,A,0pm7s4o5,5,4,interested,very_rigid,none,medium,3,False
331,A,gzjop6y4,5,4,disinterested,very_flexible,none,slightly_low,2,False
332,A,w3d8x589,5,4,disinterested,very_rigid,none,medium,3,False
333,A,ldchb1gc,5,4,interested,very_flexible,none,slightly_high,4,False
334,A,2n2nnnah,5,4,interested,very_rigid,none,slightly_high,4,False
335,A,f5vhn4ef,5,4,disinterested,very_flexible,none,slightly_low,2,False
336,A,tn91fg3b,5,4,disinterested,very_rigid,none,medium,3,False
337,A,pi2k9gvv,5,4,interested,very_flexible,none,slightly_high,4,False
338,A,pnopn919,5,4,interested,very_rigid,none,high,5,False
339,A,s5rz5zco,5,4,disinterested,very_rigid,none,medium,3,False
340,A,84jtsx1a,5,4,interested,very_flexible,none,slightly_high,4,False
341,A,lqbo1527,5,4,interested,very_rigid,none,medium,3,False
342,A,8tvsx0fd,5,4,disinterested,very_flexible,none,low,1,False
343,A,dba0n916,5,4,disinterested,very_rigid,none,medium,3,False
344,A,61dlsmmk,5,4,interested,very_flexible,none,high,5,False
345,A,jj4r1t9p,5,4,interested,very_rigid,none,slightly_high,4,False
346,A,cndtfhxg,5,4,disinterested,very_flexible,none,medium,3,False
347,A,hm32uo0p,5,4,disinterested,very_rigid,none,medium,3,False
348,A,x8whx6bm,5,4,interested,very_flexible,none,medium,3,False
349,A,z6hvztqh,5,4,disinterested,very_flexible,none,medium,3,True
350,A,85n7tozx,5,4,disinterested,very_rigid,none,medium,3,False
351,A,rk0xc19u,5,4,interested,very_flexible,none,slightly_high,4,False
352,A,m753aoa8,5,4,interested,very_rigid,none,high,5,False
353,A,s1udgqra,5,4,disinterested,very_flexible,none,medium,3,False
354,A,rwz4laqf,5,4,disinterested,very_rigid,none,medium,3,False
355,A,2clf3qjs,5,4,interested,very_flexible,none,slightly_high,4,True
356,A,jtj4y8j9,5,4,interested,very_rigid,none,slightly_high,4,True
357,A,olaqpku3,5,4,disinterested,very_flexible,none,low,1,True
358,A,30ynb4ww,5,4,disinterested,very_rigid,none,slightly_low,2,False
359,A,job309if,5,4,interested,very_flexible,none,slightly_high,4,True
360,A,fwvovwys,5,4,interested,very_rigid,none,slightly_high,4,False
361,A,efqjg7qk,5,4,disinterested,very_rigid,none,medium,3,False
362,A,abrqft6t,5,4,interested,very_flexible,none,slightly_high,4,False
363,A,6rs4ty3i,5,4,interested,very_rigid,none,medium,3,False
364,A,cbn0yvv3,5,4,disinterested,very_flexible,none,slightly_high,4,False
365,A,181c6htg,5,4,disinterested,very_rigid,none,medium,3,False
366,A,i0td3h33,5,4,interested,very_flexible,none,slightly_high,4,True
367,A,u7rycd0v,5,4,interested,very_rigid,none,medium,3,False
368,A,fp10g2qx,5,4,disinterested,very_flexible,none,medium,3,False
369,A,sf4osa9n,5,4,disinterested,very_rigid,none,medium,3,False
370,A,wl96ty29,5,4,interested,very_flexible,none,slightly_high,4,False
371,A,prxpq1gh,5,4,interested,very_rigid,none,medium,3,False
372,A,2x6s0hif,5,4,disinterested,very_flexible,none,slightly_high,4,False
373,A,r8h1it9l,5,4,disinterested,very_rigid,none,medium,3,False
374,A,3h046v2j,5,4,interested,very_flexible,none,slightly_high,4,False
375,A,sjy2dlo0,5,4,interested,very_rigid,none,medium,3,True
376,A,me7bhqlo,5,4,disinterested,very_rigid,none,medium,3,False
377,A,7ru0x9ro,5,4,interested,very_rigid,none,medium,3,False
378,A,srpft0j6,5,4,disinterested,very_rigid,none,medium,3,False
379,A,qiyaxaff,5,4,disinterested,very_flexible,none,high,5,True
380,A,0k57v1np,5,4,disinterested,very_rigid,none,medium,3,False
381,A,kzd59pdh,5,4,interested,very_flexible,none,slightly_high,4,False
382,A,26ucyyyw,5,4,disinterested,very_rigid,none,medium,3,False
383,A,opwfux7k,5,4,interested,very_flexible,none,medium,3,False
384,A,d1j2wz3u,5,4,interested,very_rigid,none,high,5,False
385,A,7b8yn66a,5,4,disinterested,very_flexible,none,slightly_low,2,True
386,A,wnsjgeel,5,4,disinterested,very_rigid,none,medium,3,True
387,A,4rj36y8r,5,4,interested,very_flexible,none,slightly_high,4,False
388,A,mllfjnwv,5,4,interested,very_rigid,none,medium,3,False
389,A,gh7cgbdd,5,4,disinterested,very_flexible,none,slightly_high,4,True
390,A,a0fba1p4,5,4,disinterested,very_rigid,none,medium,3,False
391,A,i9jeohin,5,4,interested,very_rigid,none,slightly_high,4,False
392,A,8yajl1jy,5,4,disinterested,very_rigid,none,medium,3,True
393,A,n1aur0uy,5,4,interested,very_flexible,none,slightly_high,4,False
394,A,p6pzjoyp,5,4,interested,very_rigid,none,slightly_high,4,False
395,A,o3p09ngr,5,4,disinterested,very_flexible,none,slightly_high,4,False
396,A,ucqfa4ve,5,4,disinterested,very_rigid,none,medium,3,True
397,A,wly741pc,5,4,interested,very_flexible,none,slightly_high,4,False
398,A,gdxahyb7,5,4,interested,very_rigid,none,slightly_high,4,False
399,A,z7q2ci1x,5,4,disinterested,very_flexible,none,slightly_high,4,False
400,A,rysaqzm4,5,4,disinterested,very_rigid,none,slightly_low,2,True
401,A,x4grrcuj,5,4,interested,very_flexible,none,medium,3,False
402,A,w2ln3hhc,5,4,interested,very_rigid,none,slightly_high,4,True
403,A,7rwpytud,5,4,disinterested,very_flexible,none,slightly_low,2,False
404,A,s97egxzl,5,4,disinterested,very_rigid,none,medium,3,False
405,A,veja00p0,6,0,disinterested,very_flexible,none,medium,3,True
406,A,8p0zh0j6,6,0,disinterested,very_rigid,none,low,0,False
407,A,lsrx4pel,6,0,interested,very_rigid,good,medium,3,False
408,A,zb0eyi2x,6,0,disinterested,very_flexible,none,medium,3,False
409,A,4kyco475,6,0,disinterested,very_rigid,none,high,6,True
410,A,tl23k2gu,6,0,interested,very_flexible,good,low,2,True
411,A,0pm7s4o5,6,0,interested,very_rigid,good,medium,3,False
412,A,gzjop6y4,6,0,disinterested,very_flexible,good,medium,3,True
413,A,w3d8x589,6,0,disinterested,very_rigid,good,medium,3,False
414,A,ldchb1gc,6,0,interested,very_flexible,none,high,4,False
415,A,2n2nnnah,6,0,interested,very_rigid,good,medium,3,True
416,A,f5vhn4ef,6,0,disinterested,very_flexible,none,low,2,False
417,A,tn91fg3b,6,0,disinterested,very_rigid,good,low,0,True
418,A,pi2k9gvv,6,0,interested,very_flexible,none,low,2,False
419,A,pnopn919,6,0,interested,very_rigid,none,low,0,True
420,A,s5rz5zco,6,0,disinterested,very_rigid,good,high,6,True
421,A,84jtsx1a,6,0,interested,very_flexible,none,high,4,True
422,A,lqbo1527,6,0,interested,very_rigid,good,medium,3,True
423,A,8tvsx0fd,6,0,disinterested,very_flexible,good,high,4,False
424,A,dba0n916,6,0,disinterested,very_rigid,good,low,0,True
425,A,61dlsmmk,6,0,interested,very_flexible,none,low,2,False
426,A,jj4r1t9p,6,0,interested,very_rigid,good,medium,3,False
427,A,cndtfhxg,6,0,disinterested,very_flexible,none,medium,3,True
428,A,hm32uo0p,6,0,disinterested,very_rigid,none,low,0,True
429,A,x8whx6bm,6,0,interested,very_flexible,none,medium,3,True
430,A,z6hvztqh,6,0,disinterested,very_flexible,good,low,2,True
431,A,85n7tozx,6,0,disinterested,very_rigid,none,medium,3,False
432,A,rk0xc19u,6,0,interested,very_flexible,none,medium,3,True
433,A,m753aoa8,6,0,interested,very_rigid,good,medium,3,True
434,A,s1udgqra,6,0,disinterested,very_flexible,good,high,4,False
435,A,rwz4laqf,6,0,disinterested,very_rigid,good,high,6,False
436,A,2clf3qjs,6,0,interested,very_flexible,good,high,4,True
437,A,jtj4y8j9,6,0,interested,very_rigid,good,high,6,False
438,A,olaqpku3,6,0,disinterested,very_flexible,none,high,4,False
439,A,30ynb4ww,6,0,disinterested,very_rigid,none,low,0,False
440,A,job309if,6,0,interested,very_flexible,none,low,2,True
441,A,fwvovwys,6,0,interested,very_rigid,none,low,0,True
442,A,efqjg7qk,6,0,disinterested,very_rigid,good,medium,3,False
443,A,abrqft6t,6,0,interested,very_flexible,good,high,4,False
444,A,6rs4ty3i,6,0,interested,very_rigid,good,low,0,True
445,A,cbn0yvv3,6,0,disinterested,very_flexible,none,high,4,False
446,A,181c6htg,6,0,disinterested,very_rigid,good,low,0,False
447,A,i0td3h33,6,0,interested,very_flexible,good,high,4,True
448,A,u7rycd0v,6,0,interested,very_rigid,none,medium,3,False
449,A,fp10g2qx,6,0,disinterested,very_flexible,none,medium,3,True
450,A,sf4osa9n,6,0,disinterested,very_rigid,good,low,0,False
451,A,wl96ty29,6,0,interested,very_flexible,good,low,2,True
452,A,prxpq1gh,6,0,interested,very_rigid,none,high,6,False
453,A,2x6s0hif,6,0,disinterested,very_flexible,good,high,4,True
454,A,r8h1it9l,6,0,disinterested,very_rigid,none,high,6,False
455,A,3h046v2j,6,0,interested,very_flexible,none,high,4,False
456,A,sjy2dlo0,6,0,interested,very_rigid,good,high,6,True
457,A,me7bhqlo,6,0,disinterested,very_rigid,good,medium,3,True
458,A,7ru0x9ro,6,0,interested,very_rigid,none,high,6,False
459,A,srpft0j6,6,0,disinterested,very_rigid,none,high,6,False
460,A,qiyaxaff,6,0,disinterested,very_flexible,good,medium,3,True
461,A,0k57v1np,6,0,disinterested,very_rigid,none,low,0,True
462,A,kzd59pdh,6,0,interested,very_flexible,good,high,4,True
463,A,26ucyyyw,6,0,disinterested,very_rigid,good,medium,3,True
464,A,opwfux7k,6,0,interested,very_flexible,none,high,4,False
465,A,d1j2wz3u,6,0,interested,very_rigid,none,low,0,True
466,A,7b8yn66a,6,0,disinterested,very_flexible,none,medium,3,False
467,A,wnsjgeel,6,0,disinterested,very_rigid,none,low,0,True
468,A,4rj36y8r,6,0,interested,very_flexible,good,medium,3,True
469,A,mllfjnwv,6,0,interested,very_rigid,none,low,0,True
470,A,gh7cgbdd,6,0,disinterested,very_flexible,none,low,2,True
471,A,a0fba1p4,6,0,disinterested,very_rigid,none,high,6,True
472,A,i9jeohin,6,0,interested,very_rigid,good,high,6,False
473,A,8yajl1jy,6,0,disinterested,very_rigid,none,medium,3,False
474,A,n1aur0uy,6,0,interested,very_flexible,good,low,2,False
475,A,p6pzjoyp,6,0,interested,very_rigid,good,high,6,False
476,A,o3p09ngr,6,0,disinterested,very_flexible,none,high,4,False
477,A,ucqfa4ve,6,0,disinterested,very_rigid,good,medium,3,True
478,A,wly741pc,6,0,interested,very_flexible,good,low,2,True
479,A,gdxahyb7,6,0,interested,very_rigid,none,low,0,True
480,A,z7q2ci1x,6,0,disinterested,very_flexible,none,high,4,False
481,A,rysaqzm4,6,0,disinterested,very_rigid,good,high,6,False
482,A,x4grrcuj,6,0,interested,very_flexible,none,low,2,True
483,A,w2ln3hhc,6,0,interested,very_rigid,none,high,6,False
484,A,7rwpytud,6,0,disinterested,very_flexible,good,medium,3,True
485,A,s97egxzl,6,0,disinterested,very_rigid,good,medium,3,True
486,A,veja00p0,7,1,disinterested,very_flexible,none,slightly_high,4,False
487,A,8p0zh0j6,7,1,disinterested,very_rigid,none,very_low,0,False
488,A,lsrx4pel,7,1,interested,very_rigid,good,medium,3,True
489,A,zb0eyi2x,7,1,disinterested,very_flexible,none,slightly_low,2,False
490,A,4kyco475,7,1,disinterested,very_rigid,none,very_high,6,False
491,A,tl23k2gu,7,1,interested,very_flexible,good,high,5,False
492,A,0pm7s4o5,7,1,interested,very_rigid,good,medium,3,False
493,A,gzjop6y4,7,1,disinterested,very_flexible,good,slightly_high,4,False
494,A,w3d8x589,7,1,disinterested,very_rigid,good,medium,3,True
495,A,ldchb1gc,7,1,interested,very_flexible,none,medium,3,True
496,A,2n2nnnah,7,1,interested,very_rigid,good,medium,3,False
497,A,f5vhn4ef,7,1,disinterested,very_flexible,none,slightly_low,2,False
498,A,tn91fg3b,7,1,disinterested,very_rigid,good,very_low,0,False
499,A,pi2k9gvv,7,1,interested,very_flexible,none,medium,3,True
500,A,pnopn919,7,1,interested,very_rigid,none,very_low,0,False
501,A,s5rz5zco,7,1,disinterested,very_rigid,good,very_high,6,False
502,A,84jtsx1a,7,1,interested,very_flexible,none,very_high,6,False
503,A,lqbo1527,7,1,interested,very_rigid,good,medium,3,False
504,A,8tvsx0fd,7,1,disinterested,very_flexible,good,medium,3,False
505,A,dba0n916,7,1,disinterested,very_rigid,good,very_low,0,True
506,A,61dlsmmk,7,1,interested,very_flexible,none,very_low,0,True
507,A,jj4r1t9p,7,1,interested,very_rigid,good,medium,3,True
508,A,cndtfhxg,7,1,disinterested,very_flexible,none,slightly_high,4,True
509,A,hm32uo0p,7,1,disinterested,very_rigid,none,very_low,0,False
510,A,x8whx6bm,7,1,interested,very_flexible,none,high,5,True
511,A,z6hvztqh,7,1,disinterested,very_flexible,good,slightly_high,4,False
512,A,85n7tozx,7,1,disinterested,very_rigid,none,medium,3,False
513,A,rk0xc19u,7,1,interested,very_flexible,none,high,5,False
514,A,m753aoa8,7,1,interested,very_rigid,good,medium,3,True
515,A,s1udgqra,7,1,disinterested,very_flexible,good,medium,3,False
516,A,rwz4laqf,7,1,disinterested,very_rigid,good,very_high,6,False
517,A,2clf3qjs,7,1,interested,very_flexible,good,very_high,6,False
518,A,jtj4y8j9,7,1,interested,very_rigid,good,very_high,6,False
519,A,olaqpku3,7,1,disinterested,very_flexible,none,low,1,True
520,A,30ynb4ww,7,1,disinterested,very_rigid,none,very_low,0,False
521,A,job309if,7,1,interested,very_flexible,none,high,5,True
522,A,fwvovwys,7,1,interested,very_rigid,none,very_low,0,False
523,A,efqjg7qk,7,1,disinterested,very_rigid,good,medium,3,False
524,A,abrqft6t,7,1,interested,very_flexible,good,medium,3,True
525,A,6rs4ty3i,7,1,interested,very_rigid,good,very_low,0,False
526,A,cbn0yvv3,7,1,disinterested,very_flexible,none,low,1,True
527,A,181c6htg,7,1,disinterested,very_rigid,good,very_low,0,True
528,A,i0td3h33,7,1,interested,very_flexible,good,very_high,6,False
529,A,u7rycd0v,7,1,interested,very_rigid,none,medium,3,False
530,A,fp10g2qx,7,1,disinterested,very_flexible,none,slightly_high,4,True
531,A,sf4osa9n,7,1,disinterested,very_rigid,good,very_low,0,False
532,A,wl96ty29,7,1,interested,very_flexible,good,high,5,False
533,A,prxpq1gh,7,1,interested,very_rigid,none,very_high,6,False
534,A,2x6s0hif,7,1,disinterested,very_flexible,good,high,5,False
535,A,r8h1it9l,7,1,disinterested,very_rigid,none,very_high,6,False
536,A,3h046v2j,7,1,interested,very_flexible,none,medium,3,False
537,A,sjy2dlo0,7,1,interested,very_rigid,good,very_high,6,False
538,A,me7bhqlo,7,1,disinterested,very_rigid,good,medium,3,False
539,A,7ru0x9ro,7,1,interested,very_rigid,none,very_high,6,False
540,A,srpft0j6,7,1,disinterested,very_rigid,none,very_high,6,False
541,A,qiyaxaff,7,1,disinterested,very_flexible,good,slightly_high,4,False
542,A,0k57v1np,7,1,disinterested,very_rigid,none,very_low,0,True
543,A,kzd59pdh,7,1,interested,very_flexible,good,very_high,6,False
544,A,26ucyyyw,7,1,disinterested,very_rigid,good,medium,3,False
545,A,opwfux7k,7,1,interested,very_flexible,none,low,1,True
546,A,d1j2wz3u,7,1,interested,very_rigid,none,very_low,0,True
547,A,7b8yn66a,7,1,disinterested,very_flexible,none,low,1,True
548,A,wnsjgeel,7,1,disinterested,very_rigid,none,very_low,0,False
549,A,4rj36y8r,7,1,interested,very_flexible,good,high,5,False
550,A,mllfjnwv,7,1,interested,very_rigid,none,very_low,0,False
551,A,gh7cgbdd,7,1,disinterested,very_flexible,none,slightly_high,4,False
552,A,a0fba1p4,7,1,disinterested,very_rigid,none,very_high,6,True
553,A,i9jeohin,7,1,interested,very_rigid,good,very_high,6,False
554,A,8yajl1jy,7,1,disinterested,very_rigid,none,medium,3,False
555,A,n1aur0uy,7,1,interested,very_flexible,good,medium,3,False
556,A,p6pzjoyp,7,1,interested,very_rigid,good,very_high,6,False
557,A,o3p09ngr,7,1,disinterested,very_flexible,none,medium,3,True
558,A,ucqfa4ve,7,1,disinterested,very_rigid,good,medium,3,False
559,A,wly741pc,7,1,interested,very_flexible,good,high,5,False
560,A,gdxahyb7,7,1,interested,very_rigid,none,very_low,0,False
561,A,z7q2ci1x,7,1,disinterested,very_flexible,none,medium,3,True
562,A,rysaqzm4,7,1,disinterested,very_rigid,good,very_high,6,False
563,A,x4grrcuj,7,1,interested,very_flexible,none,high,5,False
564,A,w2ln3hhc,7,1,interested,very_rigid,none,very_high,6,False
565,A,7rwpytud,7,1,disinterested,very_flexible,good,slightly_high,4,False
566,A,s97egxzl,7,1,disinterested,very_rigid,good,medium,3,False
567,A,veja00p0,8,2,disinterested,very_flexible,none,medium,3,True
568,A,8p0zh0j6,8,2,disinterested,very_rigid,none,very_low,0,True
569,A,lsrx4pel,8,2,interested,very_rigid,good,slightly_high,4,False
570,A,zb0eyi2x,8,2,disinterested,very_flexible,none,slightly_low,2,False
571,A,4kyco475,8,2,disinterested,very_rigid,none,very_high,6,False
572,A,tl23k2gu,8,2,interested,very_flexible,good,slightly_high,4,False
573,A,0pm7s4o5,8,2,interested,very_rigid,good,medium,3,True
574,A,gzjop6y4,8,2,disinterested,very_flexible,good,medium,3,True
575,A,w3d8x589,8,2,disinterested,very_rigid,good,medium,3,False
576,A,ldchb1gc,8,2,interested,very_flexible,none,very_high,6,False
577,A,2n2nnnah,8,2,interested,very_rigid,good,slightly_high,4,True
578,A,f5vhn4ef,8,2,disinterested,very_flexible,none,slightly_low,2,True
579,A,tn91fg3b,8,2,disinterested,very_rigid,good,very_low,0,True
580,A,pi2k9gvv,8,2,interested,very_flexible,none,very_high,6,False
581,A,pnopn919,8,2,interested,very_rigid,none,slightly_low,2,True
582,A,s5rz5zco,8,2,disinterested,very_rigid,good,very_high,6,False
583,A,84jtsx1a,8,2,interested,very_flexible,none,high,5,False
584,A,lqbo1527,8,2,interested,very_rigid,good,medium,3,False
585,A,8tvsx0fd,8,2,disinterested,very_flexible,good,medium,3,False
586,A,dba0n916,8,2,disinterested,very_rigid,good,low,1,False
587,A,61dlsmmk,8,2,interested,very_flexible,none,slightly_high,4,False
588,A,jj4r1t9p,8,2,interested,very_rigid,good,slightly_high,4,True
589,A,cndtfhxg,8,2,disinterested,very_flexible,none,high,5,False
590,A,hm32uo0p,8,2,disinterested,very_rigid,none,very_low,0,False
591,A,x8whx6bm,8,2,interested,very_flexible,none,very_high,6,True
592,A,z6hvztqh,8,2,disinterested,very_flexible,good,slightly_low,2,True
593,A,85n7tozx,8,2,disinterested,very_rigid,none,medium,3,False
594,A,rk0xc19u,8,2,interested,very_flexible,none,slightly_high,4,False
595,A,m753aoa8,8,2,interested,very_rigid,good,slightly_high,4,False
596,A,s1udgqra,8,2,disinterested,very_flexible,good,medium,3,False
597,A,rwz4laqf,8,2,disinterested,very_rigid,good,low,1,True
598,A,2clf3qjs,8,2,interested,very_flexible,good,high,5,False
599,A,jtj4y8j9,8,2,interested,very_rigid,good,very_high,6,False
600,A,olaqpku3,8,2,disinterested,very_flexible,none,medium,3,False
601,A,30ynb4ww,8,2,disinterested,very_rigid,none,very_low,0,False
602,A,job309if,8,2,interested,very_flexible,none,very_high,6,True
603,A,fwvovwys,8,2,interested,very_rigid,none,slightly_low,2,False
604,A,efqjg7qk,8,2,disinterested,very_rigid,good,medium,3,False
605,A,abrqft6t,8,2,interested,very_flexible,good,very_high,6,False
606,A,6rs4ty3i,8,2,interested,very_rigid,good,slightly_low,2,False
607,A,cbn0yvv3,8,2,disinterested,very_flexible,none,medium,3,False
608,A,181c6htg,8,2,disinterested,very_rigid,good,low,1,True
609,A,i0td3h33,8,2,interested,very_flexible,good,high,5,False
610,A,u7rycd0v,8,2,interested,very_rigid,none,medium,3,False
611,A,fp10g2qx,8,2,disinterested,very_flexible,none,high,5,False
612,A,sf4osa9n,8,2,disinterested,very_rigid,good,very_low,0,True
613,A,wl96ty29,8,2,interested,very_flexible,good,slightly_high,4,False
614,A,prxpq1gh,8,2,interested,very_rigid,none,very_high,6,False
615,A,2x6s0hif,8,2,disinterested,very_flexible,good,medium,3,False
616,A,r8h1it9l,8,2,disinterested,very_rigid,none,slightly_high,4,True
617,A,3h046v2j,8,2,interested,very_flexible,none,low,1,True
618,A,sjy2dlo0,8,2,interested,very_rigid,good,very_high,6,False
619,A,me7bhqlo,8,2,disinterested,very_rigid,good,medium,3,False
620,A,7ru0x9ro,8,2,interested,very_rigid,none,slightly_high,4,False
621,A,srpft0j6,8,2,disinterested,very_rigid,none,slightly_high,4,False
622,A,qiyaxaff,8,2,disinterested,very_flexible,good,medium,3,False
623,A,0k57v1np,8,2,disinterested,very_rigid,none,low,1,False
624,A,kzd59pdh,8,2,interested,very_flexible,good,slightly_high,4,False
625,A,26ucyyyw,8,2,disinterested,very_rigid,good,medium,3,False
626,A,opwfux7k,8,2,interested,very_flexible,none,high,5,False
627,A,d1j2wz3u,8,2,interested,very_rigid,none,medium,3,True
628,A,7b8yn66a,8,2,disinterested,very_flexible,none,medium,3,True
629,A,wnsjgeel,8,2,disinterested,very_rigid,none,very_low,0,True
630,A,4rj36y8r,8,2,interested,very_flexible,good,slightly_high,4,False
631,A,mllfjnwv,8,2,interested,very_rigid,none,slightly_low,2,False
632,A,gh7cgbdd,8,2,disinterested,very_flexible,none,slightly_low,2,False
633,A,a0fba1p4,8,2,disinterested,very_rigid,none,very_high,6,True
634,A,i9jeohin,8,2,interested,very_rigid,good,very_high,6,False
635,A,8yajl1jy,8,2,disinterested,very_rigid,none,medium,3,False
636,A,n1aur0uy,8,2,interested,very_flexible,good,medium,3,False
637,A,p6pzjoyp,8,2,interested,very_rigid,good,very_high,6,False
638,A,o3p09ngr,8,2,disinterested,very_flexible,none,high,5,True
639,A,ucqfa4ve,8,2,disinterested,very_rigid,good,medium,3,False
640,A,wly741pc,8,2,interested,very_flexible,good,slightly_high,4,False
641,A,gdxahyb7,8,2,interested,very_rigid,none,slightly_low,2,False
642,A,z7q2ci1x,8,2,disinterested,very_flexible,none,high,5,False
643,A,rysaqzm4,8,2,disinterested,very_rigid,good,low,1,False
644,A,x4grrcuj,8,2,interested,very_flexible,none,slightly_high,4,False
645,A,w2ln3hhc,8,2,interested,very_rigid,none,very_high,6,True
646,A,7rwpytud,8,2,disinterested,very_flexible,good,slightly_low,2,False
647,A,s97egxzl,8,2,disinterested,very_rigid,good,medium,3,True
648,A,veja00p0,9,3,disinterested,very_flexible,none,slightly_high,4,False
649,A,8p0zh0j6,9,3,disinterested,very_rigid,none,medium,3,False
650,A,lsrx4pel,9,3,interested,very_rigid,good,slightly_high,4,True
651,A,zb0eyi2x,9,3,disinterested,very_flexible,none,slightly_low,2,True
652,A,4kyco475,9,3,disinterested,very_rigid,none,high,5,False
653,A,tl23k2gu,9,3,interested,very_flexible,good,slightly_low,2,True
654,A,0pm7s4o5,9,3,interested,very_rigid,good,slightly_high,4,False
655,A,gzjop6y4,9,3,disinterested,very_flexible,good,slightly_high,4,False
656,A,w3d8x589,9,3,disinterested,very_rigid,good,medium,3,False
657,A,ldchb1gc,9,3,interested,very_flexible,none,slightly_high,4,False
658,A,2n2nnnah,9,3,interested,very_rigid,good,slightly_high,4,False
659,A,f5vhn4ef,9,3,disinterested,very_flexible,none,high,5,False
660,A,tn91fg3b,9,3,disinterested,very_rigid,good,medium,3,False
661,A,pi2k9gvv,9,3,interested,very_flexible,none,slightly_high,4,False
662,A,pnopn919,9,3,interested,very_rigid,none,high,5,False
663,A,s5rz5zco,9,3,disinterested,very_rigid,good,medium,3,True
664,A,84jtsx1a,9,3,interested,very_flexible,none,slightly_high,4,False
665,A,lqbo1527,9,3,interested,very_rigid,good,medium,3,True
666,A,8tvsx0fd,9,3,disinterested,very_flexible,good,very_low,0,False
667,A,dba0n916,9,3,disinterested,very_rigid,good,low,1,False
668,A,61dlsmmk,9,3,interested,very_flexible,none,slightly_high,4,False
669,A,jj4r1t9p,9,3,interested,very_rigid,good,slightly_high,4,False
670,A,cndtfhxg,9,3,disinterested,very_flexible,none,slightly_high,4,False
671,A,hm32uo0p,9,3,disinterested,very_rigid,none,low,1,False
672,A,x8whx6bm,9,3,interested,very_flexible,none,very_high,6,False
673,A,z6hvztqh,9,3,disinterested,very_flexible,good,slightly_high,4,True
674,A,85n7tozx,9,3,disinterested,very_rigid,none,medium,3,False
675,A,rk0xc19u,9,3,interested,very_flexible,none,slightly_high,4,False
676,A,m753aoa8,9,3,interested,very_rigid,good,slightly_high,4,False
677,A,s1udgqra,9,3,disinterested,very_flexible,good,medium,3,False
678,A,rwz4laqf,9,3,disinterested,very_rigid,good,slightly_high,4,False
679,A,2clf3qjs,9,3,interested,very_flexible,good,medium,3,True
680,A,jtj4y8j9,9,3,interested,very_rigid,good,high,5,False
681,A,olaqpku3,9,3,disinterested,very_flexible,none,medium,3,True
682,A,30ynb4ww,9,3,disinterested,very_rigid,none,very_low,0,False
683,A,job309if,9,3,interested,very_flexible,none,very_high,6,True
684,A,fwvovwys,9,3,interested,very_rigid,none,slightly_low,2,False
685,A,efqjg7qk,9,3,disinterested,very_rigid,good,medium,3,False
686,A,abrqft6t,9,3,interested,very_flexible,good,slightly_high,4,False
687,A,6rs4ty3i,9,3,interested,very_rigid,good,slightly_low,2,False
688,A,cbn0yvv3,9,3,disinterested,very_flexible,none,medium,3,True
689,A,181c6htg,9,3,disinterested,very_rigid,good,medium,3,False
690,A,i0td3h33,9,3,interested,very_flexible,good,medium,3,True
691,A,u7rycd0v,9,3,interested,very_rigid,none,medium,3,False
692,A,fp10g2qx,9,3,disinterested,very_flexible,none,medium,3,True
693,A,sf4osa9n,9,3,disinterested,very_rigid,good,medium,3,False
694,A,wl96ty29,9,3,interested,very_flexible,good,medium,3,True
695,A,prxpq1gh,9,3,interested,very_rigid,none,high,5,False
696,A,2x6s0hif,9,3,disinterested,very_flexible,good,medium,3,True
697,A,r8h1it9l,9,3,disinterested,very_rigid,none,very_high,6,False
698,A,3h046v2j,9,3,interested,very_flexible,none,high,5,False
699,A,sjy2dlo0,9,3,interested,very_rigid,good,very_high,6,False
700,A,me7bhqlo,9,3,disinterested,very_rigid,good,medium,3,False
701,A,7ru0x9ro,9,3,interested,very_rigid,none,slightly_high,4,False
702,A,srpft0j6,9,3,disinterested,very_rigid,none,medium,3,True
703,A,qiyaxaff,9,3,disinterested,very_flexible,good,slightly_low,2,False
704,A,0k57v1np,9,3,disinterested,very_rigid,none,low,1,False
705,A,kzd59pdh,9,3,interested,very_flexible,good,medium,3,True
706,A,26ucyyyw,9,3,disinterested,very_rigid,good,medium,3,False
707,A,opwfux7k,9,3,interested,very_flexible,none,high,5,False
708,A,d1j2wz3u,9,3,interested,very_rigid,none,high,5,False
709,A,7b8yn66a,9,3,disinterested,very_flexible,none,medium,3,False
710,A,wnsjgeel,9,3,disinterested,very_rigid,none,medium,3,False
711,A,4rj36y8r,9,3,interested,very_flexible,good,medium,3,False
712,A,mllfjnwv,9,3,interested,very_rigid,none,very_low,0,False
713,A,gh7cgbdd,9,3,disinterested,very_flexible,none,slightly_low,2,False
714,A,a0fba1p4,9,3,disinterested,very_rigid,none,very_high,6,True
715,A,i9jeohin,9,3,interested,very_rigid,good,high,5,False
716,A,8yajl1jy,9,3,disinterested,very_rigid,none,medium,3,False
717,A,n1aur0uy,9,3,interested,very_flexible,good,medium,3,False
718,A,p6pzjoyp,9,3,interested,very_rigid,good,high,5,False
719,A,o3p09ngr,9,3,disinterested,very_flexible,none,very_high,6,False
720,A,ucqfa4ve,9,3,disinterested,very_rigid,good,medium,3,True
721,A,wly741pc,9,3,interested,very_flexible,good,medium,3,True
722,A,gdxahyb7,9,3,interested,very_rigid,none,slightly_low,2,True
723,A,z7q2ci1x,9,3,disinterested,very_flexible,none,medium,3,False
724,A,rysaqzm4,9,3,disinterested,very_rigid,good,slightly_low,2,True
725,A,x4grrcuj,9,3,interested,very_flexible,none,medium,3,True
726,A,w2ln3hhc,9,3,interested,very_rigid,none,very_high,6,False
727,A,7rwpytud,9,3,disinterested,very_flexible,good,slightly_low,2,False
728,A,s97egxzl,9,3,disinterested,very_rigid,good,medium,3,False
729,A,veja00p0,10,4,disinterested,very_flexible,none,medium,3,True
730,A,8p0zh0j6,10,4,disinterested,very_rigid,none,very_low,0,True
731,A,lsrx4pel,10,4,interested,very_rigid,good,high,5,False
732,A,zb0eyi2x,10,4,disinterested,very_flexible,none,high,5,False
733,A,4kyco475,10,4,disinterested,very_rigid,none,medium,3,True
734,A,tl23k2gu,10,4,interested,very_flexible,good,slightly_high,4,False
735,A,0pm7s4o5,10,4,interested,very_rigid,good,slightly_high,4,False
736,A,gzjop6y4,10,4,disinterested,very_flexible,good,medium,3,False
737,A,w3d8x589,10,4,disinterested,very_rigid,good,medium,3,False
738,A,ldchb1gc,10,4,interested,very_flexible,none,medium,3,True
739,A,2n2nnnah,10,4,interested,very_rigid,good,slightly_high,4,True
740,A,f5vhn4ef,10,4,disinterested,very_flexible,none,low,1,False
741,A,tn91fg3b,10,4,disinterested,very_rigid,good,very_low,0,True
742,A,pi2k9gvv,10,4,interested,very_flexible,none,slightly_high,4,False
743,A,pnopn919,10,4,interested,very_rigid,none,slightly_high,4,False
744,A,s5rz5zco,10,4,disinterested,very_rigid,good,slightly_high,4,False
745,A,84jtsx1a,10,4,interested,very_flexible,none,slightly_high,4,False
746,A,lqbo1527,10,4,interested,very_rigid,good,medium,3,False
747,A,8tvsx0fd,10,4,disinterested,very_flexible,good,low,1,False
748,A,dba0n916,10,4,disinterested,very_rigid,good,low,1,False
749,A,61dlsmmk,10,4,interested,very_flexible,none,slightly_high,4,False
750,A,jj4r1t9p,10,4,interested,very_rigid,good,slightly_high,4,False
751,A,cndtfhxg,10,4,disinterested,very_flexible,none,medium,3,False
752,A,hm32uo0p,10,4,disinterested,very_rigid,none,low,1,False
753,A,x8whx6bm,10,4,interested,very_flexible,none,high,5,False
754,A,z6hvztqh,10,4,disinterested,very_flexible,good,high,5,False
755,A,85n7tozx,10,4,disinterested,very_rigid,none,medium,3,False
756,A,rk0xc19u,10,4,interested,very_flexible,none,medium,3,False
757,A,m753aoa8,10,4,interested,very_rigid,good,slightly_high,4,False
758,A,s1udgqra,10,4,disinterested,very_flexible,good,medium,3,False
759,A,rwz4laqf,10,4,disinterested,very_rigid,good,slightly_high,4,False
760,A,2clf3qjs,10,4,interested,very_flexible,good,slightly_high,4,True
761,A,jtj4y8j9,10,4,interested,very_rigid,good,high,5,False
762,A,olaqpku3,10,4,disinterested,very_flexible,none,slightly_high,4,False
763,A,30ynb4ww,10,4,disinterested,very_rigid,none,very_low,0,False
764,A,job309if,10,4,interested,very_flexible,none,very_high,6,True
765,A,fwvovwys,10,4,interested,very_rigid,none,medium,3,False
766,A,efqjg7qk,10,4,disinterested,very_rigid,good,medium,3,False
767,A,abrqft6t,10,4,interested,very_flexible,good,slightly_high,4,False
768,A,6rs4ty3i,10,4,interested,very_rigid,good,medium,3,False
769,A,cbn0yvv3,10,4,disinterested,very_flexible,none,slightly_high,4,False
770,A,181c6htg,10,4,disinterested,very_rigid,good,slightly_low,2,False
771,A,i0td3h33,10,4,interested,very_flexible,good,slightly_high,4,False
772,A,u7rycd0v,10,4,interested,very_rigid,none,medium,3,False
773,A,fp10g2qx,10,4,disinterested,very_flexible,none,medium,3,True
774,A,sf4osa9n,10,4,disinterested,very_rigid,good,slightly_low,2,True
775,A,wl96ty29,10,4,interested,very_flexible,good,high,5,False
776,A,prxpq1gh,10,4,interested,very_rigid,none,medium,3,True
777,A,2x6s0hif,10,4,disinterested,very_flexible,good,high,5,False
778,A,r8h1it9l,10,4,disinterested,very_rigid,none,high,5,False
779,A,3h046v2j,10,4,interested,very_flexible,none,slightly_high,4,False
780,A,sjy2dlo0,10,4,interested,very_rigid,good,very_high,6,False
781,A,me7bhqlo,10,4,disinterested,very_rigid,good,medium,3,False
782,A,7ru0x9ro,10,4,interested,very_rigid,none,slightly_low,2,False
783,A,srpft0j6,10,4,disinterested,very_rigid,none,very_high,6,False
784,A,qiyaxaff,10,4,disinterested,very_flexible,good,slightly_low,2,True
785,A,0k57v1np,10,4,disinterested,very_rigid,none,low,1,True
786,A,kzd59pdh,10,4,interested,very_flexible,good,slightly_high,4,False
787,A,26ucyyyw,10,4,disinterested,very_rigid,good,medium,3,False
788,A,opwfux7k,10,4,interested,very_flexible,none,slightly_high,4,False
789,A,d1j2wz3u,10,4,interested,very_rigid,none,slightly_low,2,True
790,A,7b8yn66a,10,4,disinterested,very_flexible,none,medium,3,True
791,A,wnsjgeel,10,4,disinterested,very_rigid,none,slightly_low,2,True
792,A,4rj36y8r,10,4,interested,very_flexible,good,medium,3,False
793,A,mllfjnwv,10,4,interested,very_rigid,none,slightly_low,2,True
794,A,gh7cgbdd,10,4,disinterested,very_flexible,none,slightly_low,2,False
795,A,a0fba1p4,10,4,disinterested,very_rigid,none,very_high,6,True
796,A,i9jeohin,10,4,interested,very_rigid,good,high,5,False
797,A,8yajl1jy,10,4,disinterested,very_rigid,none,medium,3,True
798,A,n1aur0uy,10,4,interested,very_flexible,good,medium,3,False
799,A,p6pzjoyp,10,4,interested,very_rigid,good,high,5,False
800,A,o3p09ngr,10,4,disinterested,very_flexible,none,slightly_high,4,False
801,A,ucqfa4ve,10,4,disinterested,very_rigid,good,medium,3,True
802,A,wly741pc,10,4,interested,very_flexible,good,high,5,False
803,A,gdxahyb7,10,4,interested,very_rigid,none,high,5,False
804,A,z7q2ci1x,10,4,disinterested,very_flexible,none,medium,3,True
805,A,rysaqzm4,10,4,disinterested,very_rigid,good,high,5,False
806,A,x4grrcuj,10,4,interested,very_flexible,none,high,5,False
807,A,w2ln3hhc,10,4,interested,very_rigid,none,very_high,6,False
808,A,7rwpytud,10,4,disinterested,very_flexible,good,slightly_low,2,False
809,A,s97egxzl,10,4,disinterested,very_rigid,good,medium,3,True
810,A,veja00p0,11,0,disinterested,very_flexible,good,low,2,True
811,A,8p0zh0j6,11,0,disinterested,very_rigid,good,low,0,False
812,A,lsrx4pel,11,0,interested,very_rigid,none,high,6,False
813,A,zb0eyi2x,11,0,disinterested,very_flexible,good,medium,3,False
814,A,4kyco475,11,0,disinterested,very_rigid,good,low,0,False
815,A,tl23k2gu,11,0,interested,very_flexible,good,high,4,False
816,A,0pm7s4o5,11,0,interested,very_rigid,good,low,0,True
817,A,gzjop6y4,11,0,disinterested,very_flexible,none,low,2,False
818,A,w3d8x589,11,0,disinterested,very_rigid,good,low,0,False
819,A,ldchb1gc,11,0,interested,very_flexible,none,medium,3,False
820,A,2n2nnnah,11,0,interested,very_rigid,none,medium,3,True
821,A,f5vhn4ef,11,0,disinterested,very_flexible,good,medium,3,True
822,A,tn91fg3b,11,0,disinterested,very_rigid,none,high,6,False
823,A,pi2k9gvv,11,0,interested,very_flexible,good,low,2,True
824,A,pnopn919,11,0,interested,very_rigid,none,medium,3,True
825,A,s5rz5zco,11,0,disinterested,very_rigid,good,low,0,True
826,A,84jtsx1a,11,0,interested,very_flexible,none,low,2,True
827,A,lqbo1527,11,0,interested,very_rigid,good,high,6,False
828,A,8tvsx0fd,11,0,disinterested,very_flexible,good,medium,3,False
829,A,dba0n916,11,0,disinterested,very_rigid,none,low,0,True
830,A,61dlsmmk,11,0,interested,very_flexible,none,high,4,False
831,A,jj4r1t9p,11,0,interested,very_rigid,good,low,0,True
832,A,cndtfhxg,11,0,disinterested,very_flexible,none,high,4,True
833,A,hm32uo0p,11,0,disinterested,very_rigid,none,high,6,False
834,A,x8whx6bm,11,0,interested,very_flexible,good,low,2,True
835,A,z6hvztqh,11,0,disinterested,very_flexible,none,medium,3,True
836,A,85n7tozx,11,0,disinterested,very_rigid,none,high,6,True
837,A,rk0xc19u,11,0,interested,very_flexible,none,high,4,False
838,A,m753aoa8,11,0,interested,very_rigid,good,high,6,False
839,A,s1udgqra,11,0,disinterested,very_flexible,none,high,4,False
840,A,rwz4laqf,11,0,disinterested,very_rigid,none,low,0,True
841,A,2clf3qjs,11,0,interested,very_flexible,good,low,2,True
842,A,jtj4y8j9,11,0,interested,very_rigid,good,low,0,False
843,A,olaqpku3,11,0,disinterested,very_flexible,good,low,2,True
844,A,30ynb4ww,11,0,disinterested,very_rigid,good,medium,3,False
845,A,job309if,11,0,interested,very_flexible,good,high,4,False
846,A,fwvovwys,11,0,interested,very_rigid,none,high,6,False
847,A,efqjg7qk,11,0,disinterested,very_rigid,none,high,6,False
848,A,abrqft6t,11,0,interested,very_flexible,none,low,2,True
849,A,6rs4ty3i,11,0,interested,very_rigid,good,medium,3,True
850,A,cbn0yvv3,11,0,disinterested,very_flexible,good,medium,3,True
851,A,181c6htg,11,0,disinterested,very_rigid,good,high,6,False
852,A,i0td3h33,11,0,interested,very_flexible,none,medium,3,True
853,A,u7rycd0v,11,0,interested,very_rigid,none,low,0,False
854,A,fp10g2qx,11,0,disinterested,very_flexible,none,low,2,True
855,A,sf4osa9n,11,0,disinterested,very_rigid,none,high,6,False
856,A,wl96ty29,11,0,interested,very_flexible,good,high,4,False
857,A,prxpq1gh,11,0,interested,very_rigid,good,medium,3,True
858,A,2x6s0hif,11,0,disinterested,very_flexible,none,low,2,True
859,A,r8h1it9l,11,0,disinterested,very_rigid,good,high,6,True
860,A,3h046v2j,11,0,interested,very_flexible,none,medium,3,True
861,A,sjy2dlo0,11,0,interested,very_rigid,good,low,0,True
862,A,me7bhqlo,11,0,disinterested,very_rigid,none,medium,3,False
863,A,7ru0x9ro,11,0,interested,very_rigid,none,low,0,False
864,A,srpft0j6,11,0,disinterested,very_rigid,good,low,0,True
865,A,qiyaxaff,11,0,disinterested,very_flexible,none,high,4,True
866,A,0k57v1np,11,0,disinterested,very_rigid,none,medium,3,True
867,A,kzd59pdh,11,0,interested,very_flexible,none,high,4,False
868,A,26ucyyyw,11,0,disinterested,very_rigid,good,low,0,False
869,A,opwfux7k,11,0,interested,very_flexible,none,low,2,False
870,A,d1j2wz3u,11,0,interested,very_rigid,good,high,6,True
871,A,7b8yn66a,11,0,disinterested,very_flexible,none,low,2,True
872,A,wnsjgeel,11,0,disinterested,very_rigid,none,medium,3,True
873,A,4rj36y8r,11,0,interested,very_flexible,none,low,2,True
874,A,mllfjnwv,11,0,interested,very_rigid,good,high,6,False
875,A,gh7cgbdd,11,0,disinterested,very_flexible,none,medium,3,False
876,A,a0fba1p4,11,0,disinterested,very_rigid,good,medium,3,True
877,A,i9jeohin,11,0,interested,very_rigid,none,high,6,False
878,A,8yajl1jy,11,0,disinterested,very_rigid,none,high,6,False
879,A,n1aur0uy,11,0,interested,very_flexible,none,low,2,False
880,A,p6pzjoyp,11,0,interested,very_rigid,none,low,0,True
881,A,o3p09ngr,11,0,disinterested,very_flexible,good,low,2,True
882,A,ucqfa4ve,11,0,disinterested,very_rigid,good,high,6,False
883,A,wly741pc,11,0,interested,very_flexible,good,medium,3,True
884,A,gdxahyb7,11,0,interested,very_rigid,good,medium,3,True
885,A,z7q2ci1x,11,0,disinterested,very_flexible,good,high,4,True
886,A,rysaqzm4,11,0,disinterested,very_rigid,none,medium,3,False
887,A,x4grrcuj,11,0,interested,very_flexible,none,medium,3,True
888,A,w2ln3hhc,11,0,interested,very_rigid,good,low,0,False
889,A,7rwpytud,11,0,disinterested,very_flexible,none,high,4,False
890,A,s97egxzl,11,0,disinterested,very_rigid,none,high,6,False
891,A,veja00p0,12,1,disinterested,very_flexible,good,slightly_high,4,True
892,A,8p0zh0j6,12,1,disinterested,very_rigid,good,very_low,0,False
893,A,lsrx4pel,12,1,interested,very_rigid,none,very_high,6,False
894,A,zb0eyi2x,12,1,disinterested,very_flexible,good,slightly_low,2,False
895,A,4kyco475,12,1,disinterested,very_rigid,good,very_low,0,True
896,A,tl23k2gu,12,1,interested,very_flexible,good,medium,3,True
897,A,0pm7s4o5,12,1,interested,very_rigid,good,very_low,0,False
898,A,gzjop6y4,12,1,disinterested,very_flexible,none,slightly_low,2,False
899,A,w3d8x589,12,1,disinterested,very_rigid,good,very_low,0,True
900,A,ldchb1gc,12,1,interested,very_flexible,none,medium,3,True
901,A,2n2nnnah,12,1,interested,very_rigid,none,medium,3,False
902,A,f5vhn4ef,12,1,disinterested,very_flexible,good,slightly_high,4,False
903,A,tn91fg3b,12,1,disinterested,very_rigid,none,high,5,False
904,A,pi2k9gvv,12,1,interested,very_flexible,good,high,5,False
905,A,pnopn919,12,1,interested,very_rigid,none,medium,3,True
906,A,s5rz5zco,12,1,disinterested,very_rigid,good,very_low,0,True
907,A,84jtsx1a,12,1,interested,very_flexible,none,high,5,False
908,A,lqbo1527,12,1,interested,very_rigid,good,very_high,6,False
909,A,8tvsx0fd,12,1,disinterested,very_flexible,good,slightly_low,2,False
910,A,dba0n916,12,1,disinterested,very_rigid,none,very_low,0,True
911,A,61dlsmmk,12,1,interested,very_flexible,none,low,1,True
912,A,jj4r1t9p,12,1,interested,very_rigid,good,very_low,0,True
913,A,cndtfhxg,12,1,disinterested,very_flexible,none,high,5,False
914,A,hm32uo0p,12,1,disinterested,very_rigid,none,very_high,6,False
915,A,x8whx6bm,12,1,interested,very_flexible,good,high,5,True
916,A,z6hvztqh,12,1,disinterested,very_flexible,none,slightly_high,4,False
917,A,85n7tozx,12,1,disinterested,very_rigid,none,very_high,6,False
918,A,rk0xc19u,12,1,interested,very_flexible,none,medium,3,True
919,A,m753aoa8,12,1,interested,very_rigid,good,very_high,6,False
920,A,s1udgqra,12,1,disinterested,very_flexible,none,medium,3,False
921,A,rwz4laqf,12,1,disinterested,very_rigid,none,very_low,0,True
922,A,2clf3qjs,12,1,interested,very_flexible,good,high,5,False
923,A,jtj4y8j9,12,1,interested,very_rigid,good,very_low,0,True
924,A,olaqpku3,12,1,disinterested,very_flexible,good,slightly_high,4,True
925,A,30ynb4ww,12,1,disinterested,very_rigid,good,medium,3,False
926,A,job309if,12,1,interested,very_flexible,good,medium,3,True
927,A,fwvovwys,12,1,interested,very_rigid,none,very_high,6,False
928,A,efqjg7qk,12,1,disinterested,very_rigid,none,very_high,6,False
929,A,abrqft6t,12,1,interested,very_flexible,none,high,5,False
930,A,6rs4ty3i,12,1,interested,very_rigid,good,medium,3,False
931,A,cbn0yvv3,12,1,disinterested,very_flexible,good,slightly_high,4,False
932,A,181c6htg,12,1,disinterested,very_rigid,good,very_high,6,False
933,A,i0td3h33,12,1,interested,very_flexible,none,high,5,False
934,A,u7rycd0v,12,1,interested,very_rigid,none,very_low,0,True
935,A,fp10g2qx,12,1,disinterested,very_flexible,none,slightly_high,4,True
936,A,sf4osa9n,12,1,disinterested,very_rigid,none,very_high,6,False
937,A,wl96ty29,12,1,interested,very_flexible,good,medium,3,False
938,A,prxpq1gh,12,1,interested,very_rigid,good,medium,3,False
939,A,2x6s0hif,12,1,disinterested,very_flexible,none,slightly_high,4,True
940,A,r8h1it9l,12,1,disinterested,very_rigid,good,very_high,6,False
941,A,3h046v2j,12,1,interested,very_flexible,none,high,5,False
942,A,sjy2dlo0,12,1,interested,very_rigid,good,very_low,0,False
943,A,me7bhqlo,12,1,disinterested,very_rigid,none,medium,3,True
944,A,7ru0x9ro,12,1,interested,very_rigid,none,very_low,0,False
945,A,srpft0j6,12,1,disinterested,very_rigid,good,very_low,0,False
946,A,qiyaxaff,12,1,disinterested,very_flexible,none,high,5,False
947,A,0k57v1np,12,1,disinterested,very_rigid,none,medium,3,True
948,A,kzd59pdh,12,1,interested,very_flexible,none,low,1,False
949,A,26ucyyyw,12,1,disinterested,very_rigid,good,very_low,0,False
950,A,opwfux7k,12,1,interested,very_flexible,none,medium,3,False
951,A,d1j2wz3u,12,1,interested,very_rigid,good,very_high,6,True
952,A,7b8yn66a,12,1,disinterested,very_flexible,none,slightly_high,4,False
953,A,wnsjgeel,12,1,disinterested,very_rigid,none,medium,3,False
954,A,4rj36y8r,12,1,interested,very_flexible,none,high,5,False
955,A,mllfjnwv,12,1,interested,very_rigid,good,very_high,6,False
956,A,gh7cgbdd,12,1,disinterested,very_flexible,none,low,1,False
957,A,a0fba1p4,12,1,disinterested,very_rigid,good,medium,3,True
958,A,i9jeohin,12,1,interested,very_rigid,none,very_high,6,True
959,A,8yajl1jy,12,1,disinterested,very_rigid,none,very_high,6,False
960,A,n1aur0uy,12,1,interested,very_flexible,none,medium,3,False
961,A,p6pzjoyp,12,1,interested,very_rigid,none,very_low,0,True
962,A,o3p09ngr,12,1,disinterested,very_flexible,good,slightly_high,4,True
963,A,ucqfa4ve,12,1,disinterested,very_rigid,good,high,5,False
964,A,wly741pc,12,1,interested,very_flexible,good,high,5,True
965,A,gdxahyb7,12,1,interested,very_rigid,good,medium,3,True
966,A,z7q2ci1x,12,1,disinterested,very_flexible,good,high,5,False
967,A,rysaqzm4,12,1,disinterested,very_rigid,none,medium,3,False
968,A,x4grrcuj,12,1,interested,very_flexible,none,high,5,False
969,A,w2ln3hhc,12,1,interested,very_rigid,good,very_low,0,False
970,A,7rwpytud,12,1,disinterested,very_flexible,none,low,1,False
971,A,s97egxzl,12,1,disinterested,very_rigid,none,very_high,6,False
972,A,veja00p0,13,2,disinterested,very_flexible,good,high,5,False
973,A,8p0zh0j6,13,2,disinterested,very_rigid,good,very_low,0,True
974,A,lsrx4pel,13,2,interested,very_rigid,none,very_high,6,False
975,A,zb0eyi2x,13,2,disinterested,very_flexible,good,slightly_low,2,True
976,A,4kyco475,13,2,disinterested,very_rigid,good,low,1,False
977,A,tl23k2gu,13,2,interested,very_flexible,good,very_high,6,False
978,A,0pm7s4o5,13,2,interested,very_rigid,good,very_low,0,False
979,A,gzjop6y4,13,2,disinterested,very_flexible,none,slightly_low,2,False
980,A,w3d8x589,13,2,disinterested,very_rigid,good,low,1,True
981,A,ldchb1gc,13,2,interested,very_flexible,none,high,5,False
982,A,2n2nnnah,13,2,interested,very_rigid,none,slightly_high,4,True
983,A,f5vhn4ef,13,2,disinterested,very_flexible,good,medium,3,False
984,A,tn91fg3b,13,2,disinterested,very_rigid,none,medium,3,False
985,A,pi2k9gvv,13,2,interested,very_flexible,good,slightly_high,4,False
986,A,pnopn919,13,2,interested,very_rigid,none,slightly_high,4,False
987,A,s5rz5zco,13,2,disinterested,very_rigid,good,low,1,False
988,A,84jtsx1a,13,2,interested,very_flexible,none,slightly_high,4,False
989,A,lqbo1527,13,2,interested,very_rigid,good,slightly_high,4,True
990,A,8tvsx0fd,13,2,disinterested,very_flexible,good,slightly_low,2,False
991,A,dba0n916,13,2,disinterested,very_rigid,none,low,1,False
992,A,61dlsmmk,13,2,interested,very_flexible,none,high,5,False
993,A,jj4r1t9p,13,2,interested,very_rigid,good,medium,3,True
994,A,cndtfhxg,13,2,disinterested,very_flexible,none,medium,3,True
995,A,hm32uo0p,13,2,disinterested,very_rigid,none,slightly_high,4,False
996,A,x8whx6bm,13,2,interested,very_flexible,good,very_high,6,True
997,A,z6hvztqh,13,2,disinterested,very_flexible,none,slightly_low,2,True
998,A,85n7tozx,13,2,disinterested,very_rigid,none,very_high,6,False
999,A,rk0xc19u,13,2,interested,very_flexible,none,very_high,6,False
1000,A,m753aoa8,13,2,interested,very_rigid,good,high,5,False
1001,A,s1udgqra,13,2,disinterested,very_flexible,none,medium,3,False
1002,A,rwz4laqf,13,2,disinterested,very_rigid,none,low,1,True
1003,A,2clf3qjs,13,2,interested,very_flexible,good,slightly_high,4,False
1004,A,jtj4y8j9,13,2,interested,very_rigid,good,slightly_high,4,True
1005,A,olaqpku3,13,2,disinterested,very_flexible,good,high,5,False
1006,A,30ynb4ww,13,2,disinterested,very_rigid,good,medium,3,False
1007,A,job309if,13,2,interested,very_flexible,good,very_high,6,False
1008,A,fwvovwys,13,2,interested,very_rigid,none,very_high,6,False
1009,A,efqjg7qk,13,2,disinterested,very_rigid,none,slightly_high,4,True
1010,A,abrqft6t,13,2,interested,very_flexible,none,medium,3,True
1011,A,6rs4ty3i,13,2,interested,very_rigid,good,slightly_high,4,False
1012,A,cbn0yvv3,13,2,disinterested,very_flexible,good,medium,3,True
1013,A,181c6htg,13,2,disinterested,very_rigid,good,slightly_high,4,False
1014,A,i0td3h33,13,2,interested,very_flexible,none,slightly_high,4,False
1015,A,u7rycd0v,13,2,interested,very_rigid,none,slightly_high,4,False
1016,A,fp10g2qx,13,2,disinterested,very_flexible,none,high,5,False
1017,A,sf4osa9n,13,2,disinterested,very_rigid,none,slightly_high,4,False
1018,A,wl96ty29,13,2,interested,very_flexible,good,medium,3,True
1019,A,prxpq1gh,13,2,interested,very_rigid,good,medium,3,False
1020,A,2x6s0hif,13,2,disinterested,very_flexible,none,high,5,False
1021,A,r8h1it9l,13,2,disinterested,very_rigid,good,very_high,6,False
1022,A,3h046v2j,13,2,interested,very_flexible,none,slightly_high,4,False
1023,A,sjy2dlo0,13,2,interested,very_rigid,good,slightly_low,2,False
1024,A,me7bhqlo,13,2,disinterested,very_rigid,none,medium,3,False
1025,A,7ru0x9ro,13,2,interested,very_rigid,none,slightly_low,2,False
1026,A,srpft0j6,13,2,disinterested,very_rigid,good,very_low,0,False
1027,A,qiyaxaff,13,2,disinterested,very_flexible,none,medium,3,False
1028,A,0k57v1np,13,2,disinterested,very_rigid,none,medium,3,False
1029,A,kzd59pdh,13,2,interested,very_flexible,none,low,1,True
1030,A,26ucyyyw,13,2,disinterested,very_rigid,good,very_low,0,True
1031,A,opwfux7k,13,2,interested,very_flexible,none,medium,3,True
1032,A,d1j2wz3u,13,2,interested,very_rigid,good,very_high,6,False
1033,A,7b8yn66a,13,2,disinterested,very_flexible,none,slightly_low,2,True
1034,A,wnsjgeel,13,2,disinterested,very_rigid,none,medium,3,True
1035,A,4rj36y8r,13,2,interested,very_flexible,none,slightly_high,4,False
1036,A,mllfjnwv,13,2,interested,very_rigid,good,very_high,6,False
1037,A,gh7cgbdd,13,2,disinterested,very_flexible,none,very_low,0,False
1038,A,a0fba1p4,13,2,disinterested,very_rigid,good,medium,3,False
1039,A,i9jeohin,13,2,interested,very_rigid,none,very_high,6,False
1040,A,8yajl1jy,13,2,disinterested,very_rigid,none,slightly_high,4,False
1041,A,n1aur0uy,13,2,interested,very_flexible,none,medium,3,False
1042,A,p6pzjoyp,13,2,interested,very_rigid,none,medium,3,True
1043,A,o3p09ngr,13,2,disinterested,very_flexible,good,high,5,True
1044,A,ucqfa4ve,13,2,disinterested,very_rigid,good,medium,3,True
1045,A,wly741pc,13,2,interested,very_flexible,good,very_high,6,False
1046,A,gdxahyb7,13,2,interested,very_rigid,good,slightly_high,4,True
1047,A,z7q2ci1x,13,2,disinterested,very_flexible,good,medium,3,False
1048,A,rysaqzm4,13,2,disinterested,very_rigid,none,medium,3,False
1049,A,x4grrcuj,13,2,interested,very_flexible,none,slightly_high,4,False
1050,A,w2ln3hhc,13,2,interested,very_rigid,good,slightly_low,2,False
1051,A,7rwpytud,13,2,disinterested,very_flexible,none,very_low,0,True
1052,A,s97egxzl,13,2,disinterested,very_rigid,none,slightly_high,4,True
1053,A,veja00p0,14,3,disinterested,very_flexible,good,medium,3,True
1054,A,8p0zh0j6,14,3,disinterested,very_rigid,good,medium,3,False
1055,A,lsrx4pel,14,3,interested,very_rigid,none,high,5,False
1056,A,zb0eyi2x,14,3,disinterested,very_flexible,good,slightly_high,4,False
1057,A,4kyco475,14,3,disinterested,very_rigid,good,low,1,False
1058,A,tl23k2gu,14,3,interested,very_flexible,good,high,5,False
1059,A,0pm7s4o5,14,3,interested,very_rigid,good,low,1,False
1060,A,gzjop6y4,14,3,disinterested,very_flexible,none,medium,3,False
1061,A,w3d8x589,14,3,disinterested,very_rigid,good,medium,3,True
1062,A,ldchb1gc,14,3,interested,very_flexible,none,medium,3,False
1063,A,2n2nnnah,14,3,interested,very_rigid,none,slightly_high,4,False
1064,A,f5vhn4ef,14,3,disinterested,very_flexible,good,low,1,False
1065,A,tn91fg3b,14,3,disinterested,very_rigid,none,medium,3,False
1066,A,pi2k9gvv,14,3,interested,very_flexible,good,medium,3,False
1067,A,pnopn919,14,3,interested,very_rigid,none,slightly_high,4,False
1068,A,s5rz5zco,14,3,disinterested,very_rigid,good,low,1,True
1069,A,84jtsx1a,14,3,interested,very_flexible,none,medium,3,False
1070,A,lqbo1527,14,3,interested,very_rigid,good,very_high,6,False
1071,A,8tvsx0fd,14,3,disinterested,very_flexible,good,slightly_low,2,False
1072,A,dba0n916,14,3,disinterested,very_rigid,none,low,1,False
1073,A,61dlsmmk,14,3,interested,very_flexible,none,high,5,False
1074,A,jj4r1t9p,14,3,interested,very_rigid,good,high,5,False
1075,A,cndtfhxg,14,3,disinterested,very_flexible,none,high,5,False
1076,A,hm32uo0p,14,3,disinterested,very_rigid,none,medium,3,False
1077,A,x8whx6bm,14,3,interested,very_flexible,good,very_high,6,False
1078,A,z6hvztqh,14,3,disinterested,very_flexible,none,medium,3,True
1079,A,85n7tozx,14,3,disinterested,very_rigid,none,high,5,False
1080,A,rk0xc19u,14,3,interested,very_flexible,none,high,5,False
1081,A,m753aoa8,14,3,interested,very_rigid,good,high,5,True
1082,A,s1udgqra,14,3,disinterested,very_flexible,none,medium,3,False
1083,A,rwz4laqf,14,3,disinterested,very_rigid,none,medium,3,True
1084,A,2clf3qjs,14,3,interested,very_flexible,good,medium,3,True
1085,A,jtj4y8j9,14,3,interested,very_rigid,good,very_high,6,False
1086,A,olaqpku3,14,3,disinterested,very_flexible,good,medium,3,True
1087,A,30ynb4ww,14,3,disinterested,very_rigid,good,medium,3,False
1088,A,job309if,14,3,interested,very_flexible,good,high,5,False
1089,A,fwvovwys,14,3,interested,very_rigid,none,high,5,False
1090,A,efqjg7qk,14,3,disinterested,very_rigid,none,very_high,6,False
1091,A,abrqft6t,14,3,interested,very_flexible,none,slightly_high,4,False
1092,A,6rs4ty3i,14,3,interested,very_rigid,good,slightly_high,4,False
1093,A,cbn0yvv3,14,3,disinterested,very_flexible,good,slightly_high,4,False
1094,A,181c6htg,14,3,disinterested,very_rigid,good,medium,3,True
1095,A,i0td3h33,14,3,interested,very_flexible,none,slightly_high,4,True
1096,A,u7rycd0v,14,3,interested,very_rigid,none,medium,3,False
1097,A,fp10g2qx,14,3,disinterested,very_flexible,none,medium,3,True
1098,A,sf4osa9n,14,3,disinterested,very_rigid,none,very_low,0,False
1099,A,wl96ty29,14,3,interested,very_flexible,good,very_high,6,False
1100,A,prxpq1gh,14,3,interested,very_rigid,good,medium,3,False
1101,A,2x6s0hif,14,3,disinterested,very_flexible,none,medium,3,True
1102,A,r8h1it9l,14,3,disinterested,very_rigid,good,high,5,True
1103,A,3h046v2j,14,3,interested,very_flexible,none,slightly_high,4,False
1104,A,sjy2dlo0,14,3,interested,very_rigid,good,slightly_low,2,False
1105,A,me7bhqlo,14,3,disinterested,very_rigid,none,medium,3,True
1106,A,7ru0x9ro,14,3,interested,very_rigid,none,medium,3,False
1107,A,srpft0j6,14,3,disinterested,very_rigid,good,low,1,True
1108,A,qiyaxaff,14,3,disinterested,very_flexible,none,medium,3,False
1109,A,0k57v1np,14,3,disinterested,very_rigid,none,medium,3,False
1110,A,kzd59pdh,14,3,interested,very_flexible,none,slightly_high,4,False
1111,A,26ucyyyw,14,3,disinterested,very_rigid,good,medium,3,False
1112,A,opwfux7k,14,3,interested,very_flexible,none,very_high,6,False
1113,A,d1j2wz3u,14,3,interested,very_rigid,good,very_high,6,False
1114,A,7b8yn66a,14,3,disinterested,very_flexible,none,slightly_high,4,False
1115,A,wnsjgeel,14,3,disinterested,very_rigid,none,medium,3,False
1116,A,4rj36y8r,14,3,interested,very_flexible,none,medium,3,False
1117,A,mllfjnwv,14,3,interested,very_rigid,good,slightly_high,4,False
1118,A,gh7cgbdd,14,3,disinterested,very_flexible,none,very_low,0,False
1119,A,a0fba1p4,14,3,disinterested,very_rigid,good,medium,3,False
1120,A,i9jeohin,14,3,interested,very_rigid,none,very_high,6,False
1121,A,8yajl1jy,14,3,disinterested,very_rigid,none,medium,3,False
1122,A,n1aur0uy,14,3,interested,very_flexible,none,medium,3,False
1123,A,p6pzjoyp,14,3,interested,very_rigid,none,high,5,False
1124,A,o3p09ngr,14,3,disinterested,very_flexible,good,high,5,True
1125,A,ucqfa4ve,14,3,disinterested,very_rigid,good,very_high,6,True
1126,A,wly741pc,14,3,interested,very_flexible,good,medium,3,False
1127,A,gdxahyb7,14,3,interested,very_rigid,good,slightly_high,4,True
1128,A,z7q2ci1x,14,3,disinterested,very_flexible,good,medium,3,False
1129,A,rysaqzm4,14,3,disinterested,very_rigid,none,slightly_low,2,True
1130,A,x4grrcuj,14,3,interested,very_flexible,none,slightly_high,4,True
1131,A,w2ln3hhc,14,3,interested,very_rigid,good,medium,3,False
1132,A,7rwpytud,14,3,disinterested,very_flexible,none,medium,3,True
1133,A,s97egxzl,14,3,disinterested,very_rigid,none,very_high,6,False
1134,A,veja00p0,15,4,disinterested,very_flexible,good,slightly_high,4,True
1135,A,8p0zh0j6,15,4,disinterested,very_rigid,good,slightly_low,2,False
1136,A,lsrx4pel,15,4,interested,very_rigid,none,high,5,False
1137,A,zb0eyi2x,15,4,disinterested,very_flexible,good,medium,3,False
1138,A,4kyco475,15,4,disinterested,very_rigid,good,slightly_low,2,False
1139,A,tl23k2gu,15,4,interested,very_flexible,good,slightly_high,4,False
1140,A,0pm7s4o5,15,4,interested,very_rigid,good,slightly_low,2,False
1141,A,gzjop6y4,15,4,disinterested,very_flexible,none,medium,3,False
1142,A,w3d8x589,15,4,disinterested,very_rigid,good,high,5,False
1143,A,ldchb1gc,15,4,interested,very_flexible,none,slightly_high,4,False
1144,A,2n2nnnah,15,4,interested,very_rigid,none,slightly_high,4,False
1145,A,f5vhn4ef,15,4,disinterested,very_flexible,good,slightly_low,2,False
1146,A,tn91fg3b,15,4,disinterested,very_rigid,none,very_low,0,True
1147,A,pi2k9gvv,15,4,interested,very_flexible,good,medium,3,True
1148,A,pnopn919,15,4,interested,very_rigid,none,medium,3,True
1149,A,s5rz5zco,15,4,disinterested,very_rigid,good,slightly_high,4,False
1150,A,84jtsx1a,15,4,interested,very_flexible,none,medium,3,True
1151,A,lqbo1527,15,4,interested,very_rigid,good,very_high,6,False
1152,A,8tvsx0fd,15,4,disinterested,very_flexible,good,slightly_low,2,False
1153,A,dba0n916,15,4,disinterested,very_rigid,none,low,1,False
1154,A,61dlsmmk,15,4,interested,very_flexible,none,medium,3,False
1155,A,jj4r1t9p,15,4,interested,very_rigid,good,medium,3,True
1156,A,cndtfhxg,15,4,disinterested,very_flexible,none,medium,3,False
1157,A,hm32uo0p,15,4,disinterested,very_rigid,none,medium,3,False
1158,A,x8whx6bm,15,4,interested,very_flexible,good,high,5,True
1159,A,z6hvztqh,15,4,disinterested,very_flexible,none,medium,3,False
1160,A,85n7tozx,15,4,disinterested,very_rigid,none,slightly_high,4,True
1161,A,rk0xc19u,15,4,interested,very_flexible,none,slightly_high,4,False
1162,A,m753aoa8,15,4,interested,very_rigid,good,very_high,6,False
1163,A,s1udgqra,15,4,disinterested,very_flexible,none,very_low,0,False
1164,A,rwz4laqf,15,4,disinterested,very_rigid,none,slightly_high,4,True
1165,A,2clf3qjs,15,4,interested,very_flexible,good,high,5,False
1166,A,jtj4y8j9,15,4,interested,very_rigid,good,medium,3,False
1167,A,olaqpku3,15,4,disinterested,very_flexible,good,slightly_high,4,False
1168,A,30ynb4ww,15,4,disinterested,very_rigid,good,medium,3,False
1169,A,job309if,15,4,interested,very_flexible,good,slightly_high,4,False
1170,A,fwvovwys,15,4,interested,very_rigid,none,high,5,False
1171,A,efqjg7qk,15,4,disinterested,very_rigid,none,high,5,False
1172,A,abrqft6t,15,4,interested,very_flexible,none,slightly_high,4,False
1173,A,6rs4ty3i,15,4,interested,very_rigid,good,slightly_high,4,False
1174,A,cbn0yvv3,15,4,disinterested,very_flexible,good,medium,3,False
1175,A,181c6htg,15,4,disinterested,very_rigid,good,very_high,6,False
1176,A,i0td3h33,15,4,interested,very_flexible,none,high,5,False
1177,A,u7rycd0v,15,4,interested,very_rigid,none,low,1,True
1178,A,fp10g2qx,15,4,disinterested,very_flexible,none,slightly_high,4,False
1179,A,sf4osa9n,15,4,disinterested,very_rigid,none,low,1,False
1180,A,wl96ty29,15,4,interested,very_flexible,good,high,5,False
1181,A,prxpq1gh,15,4,interested,very_rigid,good,medium,3,False
1182,A,2x6s0hif,15,4,disinterested,very_flexible,none,slightly_high,4,False
1183,A,r8h1it9l,15,4,disinterested,very_rigid,good,very_high,6,False
1184,A,3h046v2j,15,4,interested,very_flexible,none,slightly_high,4,False
1185,A,sjy2dlo0,15,4,interested,very_rigid,good,medium,3,True
1186,A,me7bhqlo,15,4,disinterested,very_rigid,none,medium,3,True
1187,A,7ru0x9ro,15,4,interested,very_rigid,none,medium,3,False
1188,A,srpft0j6,15,4,disinterested,very_rigid,good,medium,3,False
1189,A,qiyaxaff,15,4,disinterested,very_flexible,none,slightly_low,2,True
1190,A,0k57v1np,15,4,disinterested,very_rigid,none,medium,3,False
1191,A,kzd59pdh,15,4,interested,very_flexible,none,medium,3,False
1192,A,26ucyyyw,15,4,disinterested,very_rigid,good,slightly_low,2,False
1193,A,opwfux7k,15,4,interested,very_flexible,none,slightly_high,4,False
1194,A,d1j2wz3u,15,4,interested,very_rigid,good,very_high,6,False
1195,A,7b8yn66a,15,4,disinterested,very_flexible,none,low,1,False
1196,A,wnsjgeel,15,4,disinterested,very_rigid,none,medium,3,True
1197,A,4rj36y8r,15,4,interested,very_flexible,none,medium,3,False
1198,A,mllfjnwv,15,4,interested,very_rigid,good,slightly_high,4,False
1199,A,gh7cgbdd,15,4,disinterested,very_flexible,none,very_low,0,False
1200,A,a0fba1p4,15,4,disinterested,very_rigid,good,medium,3,True
1201,A,i9jeohin,15,4,interested,very_rigid,none,very_high,6,False
1202,A,8yajl1jy,15,4,disinterested,very_rigid,none,medium,3,True
1203,A,n1aur0uy,15,4,interested,very_flexible,none,medium,3,False
1204,A,p6pzjoyp,15,4,interested,very_rigid,none,medium,3,True
1205,A,o3p09ngr,15,4,disinterested,very_flexible,good,high,5,False
1206,A,ucqfa4ve,15,4,disinterested,very_rigid,good,very_high,6,False
1207,A,wly741pc,15,4,interested,very_flexible,good,slightly_high,4,False
1208,A,gdxahyb7,15,4,interested,very_rigid,good,slightly_high,4,False
1209,A,z7q2ci1x,15,4,disinterested,very_flexible,good,very_low,0,True
1210,A,rysaqzm4,15,4,disinterested,very_rigid,none,medium,3,True
1211,A,x4grrcuj,15,4,interested,very_flexible,none,high,5,False
1212,A,w2ln3hhc,15,4,interested,very_rigid,good,very_low,0,False
1213,A,7rwpytud,15,4,disinterested,very_flexible,none,medium,3,False
1214,A,s97egxzl,15,4,disinterested,very_rigid,none,medium,3,False
1215,A,veja00p0,16,0,disinterested,very_flexible,none,high,4,False
1216,A,8p0zh0j6,16,0,disinterested,very_rigid,good,high,6,False
1217,A,lsrx4pel,16,0,interested,very_rigid,none,medium,3,False
1218,A,zb0eyi2x,16,0,disinterested,very_flexible,good,low,2,False
1219,A,4kyco475,16,0,disinterested,very_rigid,good,medium,3,True
1220,A,tl23k2gu,16,0,interested,very_flexible,none,medium,3,True
1221,A,0pm7s4o5,16,0,interested,very_rigid,good,high,6,False
1222,A,gzjop6y4,16,0,disinterested,very_flexible,good,low,2,True
1223,A,w3d8x589,16,0,disinterested,very_rigid,good,high,6,False
1224,A,ldchb1gc,16,0,interested,very_flexible,good,medium,3,True
1225,A,2n2nnnah,16,0,interested,very_rigid,good,high,6,True
1226,A,f5vhn4ef,16,0,disinterested,very_flexible,none,medium,3,False
1227,A,tn91fg3b,16,0,disinterested,very_rigid,none,medium,3,False
1228,A,pi2k9gvv,16,0,interested,very_flexible,none,high,4,True
1229,A,pnopn919,16,0,interested,very_rigid,good,high,6,True
1230,A,s5rz5zco,16,0,disinterested,very_rigid,none,high,6,False
1231,A,84jtsx1a,16,0,interested,very_flexible,none,medium,3,True
1232,A,lqbo1527,16,0,interested,very_rigid,none,medium,3,True
1233,A,8tvsx0fd,16,0,disinterested,very_flexible,good,low,2,False
1234,A,dba0n916,16,0,disinterested,very_rigid,good,medium,3,True
1235,A,61dlsmmk,16,0,interested,very_flexible,good,low,2,True
1236,A,jj4r1t9p,16,0,interested,very_rigid,none,high,6,False
1237,A,cndtfhxg,16,0,disinterested,very_flexible,none,low,2,True
1238,A,hm32uo0p,16,0,disinterested,very_rigid,good,high,6,False
1239,A,x8whx6bm,16,0,interested,very_flexible,good,medium,3,True
1240,A,z6hvztqh,16,0,disinterested,very_flexible,none,low,2,True
1241,A,85n7tozx,16,0,disinterested,very_rigid,none,low,0,False
1242,A,rk0xc19u,16,0,interested,very_flexible,good,high,4,False
1243,A,m753aoa8,16,0,interested,very_rigid,none,high,6,False
1244,A,s1udgqra,16,0,disinterested,very_flexible,none,low,2,True
1245,A,rwz4laqf,16,0,disinterested,very_rigid,good,medium,3,True
1246,A,2clf3qjs,16,0,interested,very_flexible,none,low,2,True
1247,A,jtj4y8j9,16,0,interested,very_rigid,none,medium,3,False
1248,A,olaqpku3,16,0,disinterested,very_flexible,none,medium,3,True
1249,A,30ynb4ww,16,0,disinterested,very_rigid,none,high,6,False
1250,A,job309if,16,0,interested,very_flexible,none,high,4,False
1251,A,fwvovwys,16,0,interested,very_rigid,good,low,0,True
1252,A,efqjg7qk,16,0,disinterested,very_rigid,good,high,6,False
1253,A,abrqft6t,16,0,interested,very_flexible,none,high,4,False
1254,A,6rs4ty3i,16,0,interested,very_rigid,none,high,6,False
1255,A,cbn0yvv3,16,0,disinterested,very_flexible,good,high,4,False
1256,A,181c6htg,16,0,disinterested,very_rigid,none,high,6,False
1257,A,i0td3h33,16,0,interested,very_flexible,none,high,4,False
1258,A,u7rycd0v,16,0,interested,very_rigid,none,high,6,False
1259,A,fp10g2qx,16,0,disinterested,very_flexible,good,medium,3,True
1260,A,sf4osa9n,16,0,disinterested,very_rigid,good,high,6,True
1261,A,wl96ty29,16,0,interested,very_flexible,none,low,2,False
1262,A,prxpq1gh,16,0,interested,very_rigid,good,high,6,True
1263,A,2x6s0hif,16,0,disinterested,very_flexible,none,high,4,False
1264,A,r8h1it9l,16,0,disinterested,very_rigid,none,medium,3,True
1265,A,3h046v2j,16,0,interested,very_flexible,none,low,2,True
1266,A,sjy2dlo0,16,0,interested,very_rigid,none,medium,3,True
1267,A,me7bhqlo,16,0,disinterested,very_rigid,none,low,0,True
1268,A,7ru0x9ro,16,0,interested,very_rigid,good,high,6,False
1269,A,srpft0j6,16,0,disinterested,very_rigid,good,medium,3,True
1270,A,qiyaxaff,16,0,disinterested,very_flexible,none,medium,3,True
1271,A,0k57v1np,16,0,disinterested,very_rigid,good,high,6,True
1272,A,kzd59pdh,16,0,interested,very_flexible,good,low,2,True
1273,A,26ucyyyw,16,0,disinterested,very_rigid,none,medium,3,False
1274,A,opwfux7k,16,0,interested,very_flexible,good,medium,3,False
1275,A,d1j2wz3u,16,0,interested,very_rigid,none,medium,3,True
1276,A,7b8yn66a,16,0,disinterested,very_flexible,good,low,2,True
1277,A,wnsjgeel,16,0,disinterested,very_rigid,none,high,6,True
1278,A,4rj36y8r,16,0,interested,very_flexible,good,low,2,True
1279,A,mllfjnwv,16,0,interested,very_rigid,none,high,6,False
1280,A,gh7cgbdd,16,0,disinterested,very_flexible,good,low,2,False
1281,A,a0fba1p4,16,0,disinterested,very_rigid,good,low,0,True
1282,A,i9jeohin,16,0,interested,very_rigid,good,medium,3,False
1283,A,8yajl1jy,16,0,disinterested,very_rigid,good,high,6,False
1284,A,n1aur0uy,16,0,interested,very_flexible,good,medium,3,False
1285,A,p6pzjoyp,16,0,interested,very_rigid,none,medium,3,True
1286,A,o3p09ngr,16,0,disinterested,very_flexible,none,medium,3,True
1287,A,ucqfa4ve,16,0,disinterested,very_rigid,none,high,6,True
1288,A,wly741pc,16,0,interested,very_flexible,none,low,2,False
1289,A,gdxahyb7,16,0,interested,very_rigid,none,medium,3,False
1290,A,z7q2ci1x,16,0,disinterested,very_flexible,none,medium,3,True
1291,A,rysaqzm4,16,0,disinterested,very_rigid,none,low,0,False
1292,A,x4grrcuj,16,0,interested,very_flexible,good,medium,3,True
1293,A,w2ln3hhc,16,0,interested,very_rigid,good,high,6,True
1294,A,7rwpytud,16,0,disinterested,very_flexible,none,medium,3,False
1295,A,s97egxzl,16,0,disinterested,very_rigid,none,medium,3,True
1296,A,veja00p0,17,1,disinterested,very_flexible,none,medium,3,True
1297,A,8p0zh0j6,17,1,disinterested,very_rigid,good,very_high,6,False
1298,A,lsrx4pel,17,1,interested,very_rigid,none,medium,3,True
1299,A,zb0eyi2x,17,1,disinterested,very_flexible,good,slightly_low,2,True
1300,A,4kyco475,17,1,disinterested,very_rigid,good,medium,3,False
1301,A,tl23k2gu,17,1,interested,very_flexible,none,high,5,False
1302,A,0pm7s4o5,17,1,interested,very_rigid,good,very_high,6,False
1303,A,gzjop6y4,17,1,disinterested,very_flexible,good,slightly_high,4,True
1304,A,w3d8x589,17,1,disinterested,very_rigid,good,very_high,6,False
1305,A,ldchb1gc,17,1,interested,very_flexible,good,high,5,False
1306,A,2n2nnnah,17,1,interested,very_rigid,good,very_high,6,False
1307,A,f5vhn4ef,17,1,disinterested,very_flexible,none,slightly_low,2,False
1308,A,tn91fg3b,17,1,disinterested,very_rigid,none,medium,3,True
1309,A,pi2k9gvv,17,1,interested,very_flexible,none,very_high,6,False
1310,A,pnopn919,17,1,interested,very_rigid,good,very_high,6,False
1311,A,s5rz5zco,17,1,disinterested,very_rigid,none,high,5,False
1312,A,84jtsx1a,17,1,interested,very_flexible,none,high,5,True
1313,A,lqbo1527,17,1,interested,very_rigid,none,medium,3,True
1314,A,8tvsx0fd,17,1,disinterested,very_flexible,good,slightly_low,2,False
1315,A,dba0n916,17,1,disinterested,very_rigid,good,medium,3,False
1316,A,61dlsmmk,17,1,interested,very_flexible,good,high,5,False
1317,A,jj4r1t9p,17,1,interested,very_rigid,none,very_high,6,False
1318,A,cndtfhxg,17,1,disinterested,very_flexible,none,slightly_high,4,True
1319,A,hm32uo0p,17,1,disinterested,very_rigid,good,very_high,6,False
1320,A,x8whx6bm,17,1,interested,very_flexible,good,high,5,False
1321,A,z6hvztqh,17,1,disinterested,very_flexible,none,slightly_high,4,False
1322,A,85n7tozx,17,1,disinterested,very_rigid,none,very_low,0,False
1323,A,rk0xc19u,17,1,interested,very_flexible,good,medium,3,True
1324,A,m753aoa8,17,1,interested,very_rigid,none,very_high,6,False
1325,A,s1udgqra,17,1,disinterested,very_flexible,none,slightly_high,4,False
1326,A,rwz4laqf,17,1,disinterested,very_rigid,good,medium,3,False
1327,A,2clf3qjs,17,1,interested,very_flexible,none,high,5,False
1328,A,jtj4y8j9,17,1,interested,very_rigid,none,medium,3,False
1329,A,olaqpku3,17,1,disinterested,very_flexible,none,slightly_high,4,False
1330,A,30ynb4ww,17,1,disinterested,very_rigid,none,high,5,False
1331,A,job309if,17,1,interested,very_flexible,none,medium,3,True
1332,A,fwvovwys,17,1,interested,very_rigid,good,very_low,0,False
1333,A,efqjg7qk,17,1,disinterested,very_rigid,good,very_high,6,False
1334,A,abrqft6t,17,1,interested,very_flexible,none,medium,3,False
1335,A,6rs4ty3i,17,1,interested,very_rigid,none,very_high,6,False
1336,A,cbn0yvv3,17,1,disinterested,very_flexible,good,medium,3,True
1337,A,181c6htg,17,1,disinterested,very_rigid,none,very_high,6,False
1338,A,i0td3h33,17,1,interested,very_flexible,none,medium,3,True
1339,A,u7rycd0v,17,1,interested,very_rigid,none,very_high,6,False
1340,A,fp10g2qx,17,1,disinterested,very_flexible,good,slightly_high,4,False
1341,A,sf4osa9n,17,1,disinterested,very_rigid,good,very_high,6,False
1342,A,wl96ty29,17,1,interested,very_flexible,none,medium,3,False
1343,A,prxpq1gh,17,1,interested,very_rigid,good,very_high,6,False
1344,A,2x6s0hif,17,1,disinterested,very_flexible,none,medium,3,False
1345,A,r8h1it9l,17,1,disinterested,very_rigid,none,medium,3,False
1346,A,3h046v2j,17,1,interested,very_flexible,none,high,5,False
1347,A,sjy2dlo0,17,1,interested,very_rigid,none,medium,3,False
1348,A,me7bhqlo,17,1,disinterested,very_rigid,none,very_low,0,False
1349,A,7ru0x9ro,17,1,interested,very_rigid,good,very_high,6,False
1350,A,srpft0j6,17,1,disinterested,very_rigid,good,medium,3,False
1351,A,qiyaxaff,17,1,disinterested,very_flexible,none,slightly_high,4,False
1352,A,0k57v1np,17,1,disinterested,very_rigid,good,very_high,6,True
1353,A,kzd59pdh,17,1,interested,very_flexible,good,high,5,True
1354,A,26ucyyyw,17,1,disinterested,very_rigid,none,medium,3,False
1355,A,opwfux7k,17,1,interested,very_flexible,good,medium,3,False
1356,A,d1j2wz3u,17,1,interested,very_rigid,none,medium,3,True
1357,A,7b8yn66a,17,1,disinterested,very_flexible,good,slightly_high,4,False
1358,A,wnsjgeel,17,1,disinterested,very_rigid,none,very_high,6,False
1359,A,4rj36y8r,17,1,interested,very_flexible,good,high,5,False
1360,A,mllfjnwv,17,1,interested,very_rigid,none,very_high,6,False
1361,A,gh7cgbdd,17,1,disinterested,very_flexible,good,slightly_low,2,True
1362,A,a0fba1p4,17,1,disinterested,very_rigid,good,very_low,0,True
1363,A,i9jeohin,17,1,interested,very_rigid,good,medium,3,False
1364,A,8yajl1jy,17,1,disinterested,very_rigid,good,very_high,6,False
1365,A,n1aur0uy,17,1,interested,very_flexible,good,medium,3,False
1366,A,p6pzjoyp,17,1,interested,very_rigid,none,medium,3,True
1367,A,o3p09ngr,17,1,disinterested,very_flexible,none,slightly_high,4,True
1368,A,ucqfa4ve,17,1,disinterested,very_rigid,none,very_high,6,False
1369,A,wly741pc,17,1,interested,very_flexible,none,very_low,0,False
1370,A,gdxahyb7,17,1,interested,very_rigid,none,medium,3,False
1371,A,z7q2ci1x,17,1,disinterested,very_flexible,none,slightly_high,4,False
1372,A,rysaqzm4,17,1,disinterested,very_rigid,none,very_low,0,True
1373,A,x4grrcuj,17,1,interested,very_flexible,good,high,5,False
1374,A,w2ln3hhc,17,1,interested,very_rigid,good,very_high,6,False
1375,A,7rwpytud,17,1,disinterested,very_flexible,none,low,1,True
1376,A,s97egxzl,17,1,disinterested,very_rigid,none,medium,3,True
1377,A,veja00p0,18,2,disinterested,very_flexible,none,high,5,False
1378,A,8p0zh0j6,18,2,disinterested,very_rigid,good,slightly_high,4,False
1379,A,lsrx4pel,18,2,interested,very_rigid,none,slightly_high,4,False
1380,A,zb0eyi2x,18,2,disinterested,very_flexible,good,slightly_high,4,False
1381,A,4kyco475,18,2,disinterested,very_rigid,good,medium,3,False
1382,A,tl23k2gu,18,2,interested,very_flexible,none,slightly_high,4,False
1383,A,0pm7s4o5,18,2,interested,very_rigid,good,very_high,6,False
1384,A,gzjop6y4,18,2,disinterested,very_flexible,good,high,5,False
1385,A,w3d8x589,18,2,disinterested,very_rigid,good,low,1,False
1386,A,ldchb1gc,18,2,interested,very_flexible,good,slightly_high,4,True
1387,A,2n2nnnah,18,2,interested,very_rigid,good,very_high,6,True
1388,A,f5vhn4ef,18,2,disinterested,very_flexible,none,very_low,0,False
1389,A,tn91fg3b,18,2,disinterested,very_rigid,none,medium,3,False
1390,A,pi2k9gvv,18,2,interested,very_flexible,none,high,5,False
1391,A,pnopn919,18,2,interested,very_rigid,good,very_high,6,False
1392,A,s5rz5zco,18,2,disinterested,very_rigid,none,low,1,True
1393,A,84jtsx1a,18,2,interested,very_flexible,none,very_high,6,False
1394,A,lqbo1527,18,2,interested,very_rigid,none,slightly_high,4,False
1395,A,8tvsx0fd,18,2,disinterested,very_flexible,good,slightly_low,2,True
1396,A,dba0n916,18,2,disinterested,very_rigid,good,medium,3,False
1397,A,61dlsmmk,18,2,interested,very_flexible,good,slightly_high,4,False
1398,A,jj4r1t9p,18,2,interested,very_rigid,none,very_high,6,False
1399,A,cndtfhxg,18,2,disinterested,very_flexible,none,high,5,False
1400,A,hm32uo0p,18,2,disinterested,very_rigid,good,slightly_high,4,False
1401,A,x8whx6bm,18,2,interested,very_flexible,good,slightly_high,4,False
1402,A,z6hvztqh,18,2,disinterested,very_flexible,none,slightly_low,2,True
1403,A,85n7tozx,18,2,disinterested,very_rigid,none,very_low,0,False
1404,A,rk0xc19u,18,2,interested,very_flexible,good,very_high,6,False
1405,A,m753aoa8,18,2,interested,very_rigid,none,very_high,6,True
1406,A,s1udgqra,18,2,disinterested,very_flexible,none,slightly_low,2,False
1407,A,rwz4laqf,18,2,disinterested,very_rigid,good,medium,3,False
1408,A,2clf3qjs,18,2,interested,very_flexible,none,slightly_high,4,False
1409,A,jtj4y8j9,18,2,interested,very_rigid,none,medium,3,True
1410,A,olaqpku3,18,2,disinterested,very_flexible,none,medium,3,False
1411,A,30ynb4ww,18,2,disinterested,very_rigid,none,low,1,False
1412,A,job309if,18,2,interested,very_flexible,none,very_high,6,False
1413,A,fwvovwys,18,2,interested,very_rigid,good,slightly_low,2,True
1414,A,efqjg7qk,18,2,disinterested,very_rigid,good,slightly_high,4,False
1415,A,abrqft6t,18,2,interested,very_flexible,none,medium,3,True
1416,A,6rs4ty3i,18,2,interested,very_rigid,none,very_high,6,False
1417,A,cbn0yvv3,18,2,disinterested,very_flexible,good,high,5,False
1418,A,181c6htg,18,2,disinterested,very_rigid,none,slightly_high,4,False
1419,A,i0td3h33,18,2,interested,very_flexible,none,very_high,6,False
1420,A,u7rycd0v,18,2,interested,very_rigid,none,high,5,False
1421,A,fp10g2qx,18,2,disinterested,very_flexible,good,medium,3,True
1422,A,sf4osa9n,18,2,disinterested,very_rigid,good,very_high,6,False
1423,A,wl96ty29,18,2,interested,very_flexible,none,medium,3,False
1424,A,prxpq1gh,18,2,interested,very_rigid,good,very_high,6,False
1425,A,2x6s0hif,18,2,disinterested,very_flexible,none,medium,3,True
1426,A,r8h1it9l,18,2,disinterested,very_rigid,none,medium,3,False
1427,A,3h046v2j,18,2,interested,very_flexible,none,slightly_high,4,False
1428,A,sjy2dlo0,18,2,interested,very_rigid,none,slightly_high,4,False
1429,A,me7bhqlo,18,2,disinterested,very_rigid,none,very_low,0,True
1430,A,7ru0x9ro,18,2,interested,very_rigid,good,high,5,False
1431,A,srpft0j6,18,2,disinterested,very_rigid,good,medium,3,False
1432,A,qiyaxaff,18,2,disinterested,very_flexible,none,medium,3,False
1433,A,0k57v1np,18,2,disinterested,very_rigid,good,very_high,6,True
1434,A,kzd59pdh,18,2,interested,very_flexible,good,very_high,6,True
1435,A,26ucyyyw,18,2,disinterested,very_rigid,none,medium,3,False
1436,A,opwfux7k,18,2,interested,very_flexible,good,medium,3,True
1437,A,d1j2wz3u,18,2,interested,very_rigid,none,slightly_high,4,False
1438,A,7b8yn66a,18,2,disinterested,very_flexible,good,slightly_low,2,False
1439,A,wnsjgeel,18,2,disinterested,very_rigid,none,very_high,6,False
1440,A,4rj36y8r,18,2,interested,very_flexible,good,slightly_high,4,False
1441,A,mllfjnwv,18,2,interested,very_rigid,none,high,5,False
1442,A,gh7cgbdd,18,2,disinterested,very_flexible,good,slightly_high,4,True
1443,A,a0fba1p4,18,2,disinterested,very_rigid,good,low,1,False
1444,A,i9jeohin,18,2,interested,very_rigid,good,medium,3,False
1445,A,8yajl1jy,18,2,disinterested,very_rigid,good,slightly_high,4,False
1446,A,n1aur0uy,18,2,interested,very_flexible,good,medium,3,False
1447,A,p6pzjoyp,18,2,interested,very_rigid,none,slightly_high,4,False
1448,A,o3p09ngr,18,2,disinterested,very_flexible,none,high,5,True
1449,A,ucqfa4ve,18,2,disinterested,very_rigid,none,very_high,6,True
1450,A,wly741pc,18,2,interested,very_flexible,none,very_low,0,False
1451,A,gdxahyb7,18,2,interested,very_rigid,none,medium,3,True
1452,A,z7q2ci1x,18,2,disinterested,very_flexible,none,medium,3,False
1453,A,rysaqzm4,18,2,disinterested,very_rigid,none,very_low,0,False
1454,A,x4grrcuj,18,2,interested,very_flexible,good,slightly_high,4,False
1455,A,w2ln3hhc,18,2,interested,very_rigid,good,very_high,6,False
1456,A,7rwpytud,18,2,disinterested,very_flexible,none,medium,3,True
1457,A,s97egxzl,18,2,disinterested,very_rigid,none,medium,3,True
1458,A,veja00p0,19,3,disinterested,very_flexible,none,low,1,True
1459,A,8p0zh0j6,19,3,disinterested,very_rigid,good,medium,3,False
1460,A,lsrx4pel,19,3,interested,very_rigid,none,slightly_high,4,False
1461,A,zb0eyi2x,19,3,disinterested,very_flexible,good,medium,3,True
1462,A,4kyco475,19,3,disinterested,very_rigid,good,medium,3,False
1463,A,tl23k2gu,19,3,interested,very_flexible,none,medium,3,True
1464,A,0pm7s4o5,19,3,interested,very_rigid,good,medium,3,False
1465,A,gzjop6y4,19,3,disinterested,very_flexible,good,medium,3,True
1466,A,w3d8x589,19,3,disinterested,very_rigid,good,very_low,0,False
1467,A,ldchb1gc,19,3,interested,very_flexible,good,high,5,False
1468,A,2n2nnnah,19,3,interested,very_rigid,good,very_high,6,False
1469,A,f5vhn4ef,19,3,disinterested,very_flexible,none,low,1,True
1470,A,tn91fg3b,19,3,disinterested,very_rigid,none,medium,3,True
1471,A,pi2k9gvv,19,3,interested,very_flexible,none,slightly_high,4,False
1472,A,pnopn919,19,3,interested,very_rigid,good,very_high,6,False
1473,A,s5rz5zco,19,3,disinterested,very_rigid,none,slightly_high,4,False
1474,A,84jtsx1a,19,3,interested,very_flexible,none,high,5,False
1475,A,lqbo1527,19,3,interested,very_rigid,none,medium,3,True
1476,A,8tvsx0fd,19,3,disinterested,very_flexible,good,high,5,False
1477,A,dba0n916,19,3,disinterested,very_rigid,good,medium,3,True
1478,A,61dlsmmk,19,3,interested,very_flexible,good,medium,3,False
1479,A,jj4r1t9p,19,3,interested,very_rigid,none,high,5,False
1480,A,cndtfhxg,19,3,disinterested,very_flexible,none,medium,3,False
1481,A,hm32uo0p,19,3,disinterested,very_rigid,good,medium,3,False
1482,A,x8whx6bm,19,3,interested,very_flexible,good,slightly_high,4,False
1483,A,z6hvztqh,19,3,disinterested,very_flexible,none,slightly_high,4,False
1484,A,85n7tozx,19,3,disinterested,very_rigid,none,low,1,False
1485,A,rk0xc19u,19,3,interested,very_flexible,good,high,5,False
1486,A,m753aoa8,19,3,interested,very_rigid,none,very_high,6,False
1487,A,s1udgqra,19,3,disinterested,very_flexible,none,slightly_low,2,False
1488,A,rwz4laqf,19,3,disinterested,very_rigid,good,medium,3,False
1489,A,2clf3qjs,19,3,interested,very_flexible,none,medium,3,False
1490,A,jtj4y8j9,19,3,interested,very_rigid,none,medium,3,False
1491,A,olaqpku3,19,3,disinterested,very_flexible,none,slightly_low,2,True
1492,A,30ynb4ww,19,3,disinterested,very_rigid,none,very_low,0,False
1493,A,job309if,19,3,interested,very_flexible,none,high,5,False
1494,A,fwvovwys,19,3,interested,very_rigid,good,high,5,False
1495,A,efqjg7qk,19,3,disinterested,very_rigid,good,medium,3,False
1496,A,abrqft6t,19,3,interested,very_flexible,none,very_high,6,False
1497,A,6rs4ty3i,19,3,interested,very_rigid,none,slightly_high,4,False
1498,A,cbn0yvv3,19,3,disinterested,very_flexible,good,medium,3,False
1499,A,181c6htg,19,3,disinterested,very_rigid,none,very_low,0,True
1500,A,i0td3h33,19,3,interested,very_flexible,none,high,5,False
1501,A,u7rycd0v,19,3,interested,very_rigid,none,medium,3,False
1502,A,fp10g2qx,19,3,disinterested,very_flexible,good,slightly_high,4,False
1503,A,sf4osa9n,19,3,disinterested,very_rigid,good,high,5,True
1504,A,wl96ty29,19,3,interested,very_flexible,none,medium,3,False
1505,A,prxpq1gh,19,3,interested,very_rigid,good,very_high,6,False
1506,A,2x6s0hif,19,3,disinterested,very_flexible,none,high,5,True
1507,A,r8h1it9l,19,3,disinterested,very_rigid,none,medium,3,False
1508,A,3h046v2j,19,3,interested,very_flexible,none,medium,3,True
1509,A,sjy2dlo0,19,3,interested,very_rigid,none,slightly_high,4,False
1510,A,me7bhqlo,19,3,disinterested,very_rigid,none,medium,3,False
1511,A,7ru0x9ro,19,3,interested,very_rigid,good,high,5,False
1512,A,srpft0j6,19,3,disinterested,very_rigid,good,medium,3,False
1513,A,qiyaxaff,19,3,disinterested,very_flexible,none,slightly_low,2,True
1514,A,0k57v1np,19,3,disinterested,very_rigid,good,very_high,6,False
1515,A,kzd59pdh,19,3,interested,very_flexible,good,very_high,6,False
1516,A,26ucyyyw,19,3,disinterested,very_rigid,none,medium,3,False
1517,A,opwfux7k,19,3,interested,very_flexible,good,high,5,False
1518,A,d1j2wz3u,19,3,interested,very_rigid,none,slightly_high,4,False
